ts_s,frame,accel_x,accel_y,accel_z,gyro_x,gyro_y,gyro_z
0.043921,0,0.000000,0.000000,0.000000,-0.308934,0.049902,-0.046800
0.068310,1,0.000000,0.000000,0.000000,-0.369452,0.106505,-0.009519
0.090340,2,0.000000,0.000000,0.000000,-0.347141,0.109290,0.011165
0.112706,3,0.000000,0.000000,0.000000,-0.327295,0.108358,0.027582
0.135019,4,0.000000,0.000000,0.000000,-0.323329,0.104097,0.028840
0.157109,5,0.000000,0.000000,0.000000,-0.308961,0.093611,0.017676
0.179492,6,0.000000,0.000000,0.000000,-0.288334,0.077297,0.000852
0.201788,7,0.000000,0.000000,0.000000,-0.251150,0.060964,-0.020819
0.225496,8,0.000000,0.000000,0.000000,-0.197876,0.042577,-0.039595
0.245330,9,0.000000,0.000000,0.000000,-0.156303,0.022337,-0.048239
0.267470,10,0.000000,0.000000,0.000000,-0.130244,0.001819,-0.036678
0.290031,11,0.000000,0.000000,0.000000,-0.121756,-0.006703,-0.025915
0.312129,12,0.000000,0.000000,0.000000,-0.109350,-0.010143,-0.036534
0.334612,13,0.000000,0.000000,0.000000,-0.110305,-0.009732,-0.043580
0.355901,14,0.000000,0.000000,0.000000,-0.121561,-0.010554,-0.041282
0.378240,15,0.000000,0.000000,0.000000,-0.118283,-0.008180,-0.035879
0.400755,16,0.000000,0.000000,0.000000,-0.099763,-0.009321,-0.031584
0.423413,17,0.000000,0.000000,0.000000,-0.096845,-0.014815,-0.020276
0.444959,18,0.000000,0.000000,0.000000,-0.114873,-0.036942,-0.019134
0.467387,19,0.000000,0.000000,0.000000,-0.111349,-0.062619,-0.026035
0.491244,20,0.000000,0.000000,0.000000,-0.085916,-0.081307,-0.026352
0.510810,21,0.000000,0.000000,0.000000,-0.071281,-0.094200,-0.020829
0.532616,22,0.000000,0.000000,0.000000,-0.073197,-0.098872,-0.000999
0.555075,23,0.000000,0.000000,0.000000,-0.081124,-0.101490,0.010776
0.577698,24,0.000000,0.000000,0.000000,-0.068752,-0.098294,0.011131
0.599637,25,0.000000,0.000000,0.000000,-0.055147,-0.091903,0.017968
0.622045,26,0.000000,0.000000,0.000000,-0.053756,-0.084613,0.024108
0.644354,27,0.000000,0.000000,0.000000,-0.072880,-0.078355,0.024460
0.666599,28,0.000000,0.000000,0.000000,-0.095007,-0.065572,0.023135
0.688802,29,0.000000,0.000000,0.000000,-0.093304,-0.051480,0.005762
0.711073,30,0.000000,0.000000,0.000000,-0.075461,-0.039351,-0.012891
0.737782,31,0.000000,0.000000,0.000000,-0.076475,-0.027466,-0.008817
0.755606,32,0.000000,0.000000,0.000000,-0.087127,-0.021485,-0.006720
0.777746,33,0.000000,0.000000,0.000000,-0.094063,-0.019077,-0.018438
0.799998,34,0.000000,0.000000,0.000000,-0.084852,-0.014567,-0.029334
0.822227,35,0.000000,0.000000,0.000000,-0.078216,-0.005884,-0.026550
0.844933,36,0.000000,0.000000,0.000000,-0.073377,0.000340,-0.026601
0.866889,37,0.000000,0.000000,0.000000,-0.068351,0.008619,-0.034550
0.889724,38,0.000000,0.000000,0.000000,-0.077695,0.020093,-0.040097
0.911082,39,0.000000,0.000000,0.000000,-0.090888,0.036072,-0.040491
0.933633,40,0.000000,0.000000,0.000000,-0.096231,0.050818,-0.060405
0.955666,41,0.000000,0.000000,0.000000,-0.086193,0.065899,-0.102193
0.978200,42,0.000000,0.000000,0.000000,-0.075152,0.090100,-0.123087
1.000224,43,0.000000,0.000000,0.000000,-0.080478,0.111816,-0.124840
1.045050,44,0.000000,0.000000,0.000000,-0.062502,0.147791,-0.132239
1.067010,45,0.000000,0.000000,0.000000,-0.046633,0.162781,-0.118691
1.092189,46,0.000000,0.000000,0.000000,-0.043171,0.174666,-0.102167
1.111210,47,0.000000,0.000000,0.000000,-0.048121,0.184497,-0.088185
1.133264,48,0.000000,0.000000,0.000000,-0.049296,0.189858,-0.081138
1.155523,49,0.000000,0.000000,0.000000,-0.046923,0.192232,-0.082203
1.177903,50,0.000000,0.000000,0.000000,-0.048232,0.190923,-0.078763
1.201072,51,0.000000,0.000000,0.000000,-0.055851,0.183954,-0.075895
1.222345,52,0.000000,0.000000,0.000000,-0.058230,0.171470,-0.078595
1.244666,53,0.000000,0.000000,0.000000,-0.051839,0.159342,-0.079793
1.267070,54,0.000000,0.000000,0.000000,-0.038124,0.150820,-0.090955
1.290118,55,0.000000,0.000000,0.000000,-0.026539,0.139513,-0.093872
1.311279,56,0.000000,0.000000,0.000000,-0.025473,0.133365,-0.092730
1.333570,57,0.000000,0.000000,0.000000,-0.024818,0.126075,-0.097534
1.355878,58,0.000000,0.000000,0.000000,-0.020690,0.119406,-0.104712
1.378121,59,0.000000,0.000000,0.000000,-0.020330,0.113258,-0.110448
1.401925,60,0.000000,0.000000,0.000000,-0.019867,0.105558,-0.108393
1.422553,61,0.000000,0.000000,0.000000,-0.023473,0.099820,-0.101757
1.444636,62,0.000000,0.000000,0.000000,-0.024893,0.096457,-0.096481
1.466849,63,0.000000,0.000000,0.000000,-0.022275,0.086383,-0.091647
1.490066,64,0.000000,0.000000,0.000000,-0.017176,0.075076,-0.078175
1.514454,65,0.000000,0.000000,0.000000,-0.020157,0.065321,-0.064082
1.533149,66,0.000000,0.000000,0.000000,-0.018270,0.054425,-0.062606
1.555495,67,0.000000,0.000000,0.000000,-0.007096,0.048166,-0.072459
1.578302,68,0.000000,0.000000,0.000000,0.005276,0.042018,-0.065136
1.600578,69,0.000000,0.000000,0.000000,-0.000305,0.035139,-0.039025
1.622433,70,0.000000,0.000000,0.000000,-0.006755,0.026861,-0.023700
1.644654,71,0.000000,0.000000,0.000000,0.002203,0.015797,-0.028261
1.669445,72,0.000000,0.000000,0.000000,0.003679,0.013910,-0.023478
1.688924,73,0.000000,0.000000,0.000000,-0.001924,0.007031,-0.012281
1.711354,74,0.000000,0.000000,0.000000,-0.009132,-0.004854,-0.009715
1.731240,75,0.000000,0.000000,0.000000,-0.001513,-0.016161,-0.019594
1.755905,76,0.000000,0.000000,0.000000,0.009418,-0.021077,-0.025708
1.778328,77,0.000000,0.000000,0.000000,0.010073,-0.019601,-0.021615
1.801078,78,0.000000,0.000000,0.000000,0.009008,-0.018293,-0.020088
1.822805,79,0.000000,0.000000,0.000000,0.011139,-0.019931,-0.024157
1.845014,80,0.000000,0.000000,0.000000,0.011794,-0.012800,-0.025248
1.867564,81,0.000000,0.000000,0.000000,0.017582,-0.010182,-0.016367
1.890381,82,0.000000,0.000000,0.000000,0.016322,-0.011491,-0.000673
1.911582,83,0.000000,0.000000,0.000000,0.018209,-0.016164,0.001406
1.933942,84,0.000000,0.000000,0.000000,0.026731,-0.021113,-0.000691
1.956053,85,0.000000,0.000000,0.000000,0.032058,-0.027992,0.001113
1.978784,86,0.000000,0.000000,0.000000,0.025800,-0.030701,0.006932
2.001224,87,0.000000,0.000000,0.000000,0.018344,-0.032908,0.007343
2.136297,88,0.000000,0.000000,0.000000,0.003432,-0.020582,0.004239
2.168788,89,0.000000,0.000000,0.000000,0.004087,-0.017641,0.007518
2.206382,90,0.000000,0.000000,0.000000,0.001957,-0.023456,0.005965
2.224669,91,0.000000,0.000000,0.000000,-0.000584,-0.025343,0.010059
2.244722,92,0.000000,0.000000,0.000000,0.000237,-0.026241,0.003423
2.263726,93,0.000000,0.000000,0.000000,0.006496,-0.027340,-0.001382
2.286972,94,0.000000,0.000000,0.000000,0.015018,-0.025210,-0.000727
2.310232,95,0.000000,0.000000,0.000000,0.018346,-0.027097,0.005010
2.333756,96,0.000000,0.000000,0.000000,0.012365,-0.026930,0.008373
2.356532,97,0.000000,0.000000,0.000000,0.001352,-0.022148,0.010149
2.379375,98,0.000000,0.000000,0.000000,0.003675,-0.018542,0.009815
2.402017,99,0.000000,0.000000,0.000000,0.007970,-0.016168,0.001293
2.424655,100,0.000000,0.000000,0.000000,0.005839,-0.015103,-0.006575
2.447347,101,0.000000,0.000000,0.000000,0.012015,-0.013384,-0.018587
2.470279,102,0.000000,0.000000,0.000000,0.006000,-0.009534,-0.010668
2.492614,103,0.000000,0.000000,0.000000,0.000234,-0.006095,0.006419
2.515487,104,0.000000,0.000000,0.000000,0.009897,-0.009778,0.004324
2.537296,105,0.000000,0.000000,0.000000,0.013016,-0.008545,0.005724
2.559511,106,0.000000,0.000000,0.000000,0.014325,-0.012806,0.011950
2.581496,107,0.000000,0.000000,0.000000,0.009217,-0.017235,0.012118
2.603827,108,0.000000,0.000000,0.000000,0.005641,-0.020431,0.012850
2.625840,109,0.000000,0.000000,0.000000,0.007856,-0.020842,0.007935
2.647963,110,0.000000,0.000000,0.000000,0.005969,-0.022318,0.004663
2.670645,111,0.000000,0.000000,0.000000,0.002195,-0.025514,0.006459
2.692778,112,0.000000,0.000000,0.000000,0.000180,-0.030262,0.000478
2.714715,113,0.000000,0.000000,0.000000,0.000097,-0.026991,-0.005746
2.736763,114,0.000000,0.000000,0.000000,-0.000348,-0.027478,0.001544
2.759280,115,0.000000,0.000000,0.000000,-0.000836,-0.030918,0.002777
2.781347,116,0.000000,0.000000,0.000000,0.002284,-0.028249,0.004664
2.803875,117,0.000000,0.000000,0.000000,0.008097,-0.025951,0.005343
2.825830,118,0.000000,0.000000,0.000000,0.015913,-0.024561,0.007225
2.849058,119,0.000000,0.000000,0.000000,0.019404,-0.027757,0.009933
2.870616,120,0.000000,0.000000,0.000000,0.017979,-0.028001,0.013707
2.892801,121,0.000000,0.000000,0.000000,0.013094,-0.025871,0.014193
2.915079,122,0.000000,0.000000,0.000000,0.010522,-0.022397,0.011383
2.936653,123,0.000000,0.000000,0.000000,0.006100,-0.019202,0.013017
2.959296,124,0.000000,0.000000,0.000000,0.004705,-0.018137,0.021783
2.981410,125,0.000000,0.000000,0.000000,0.008556,-0.019369,0.022681
3.003560,126,0.000000,0.000000,0.000000,0.015033,-0.021038,0.019276
3.065685,127,0.000000,0.000000,0.000000,0.023800,-0.023741,0.016735
3.092832,128,0.000000,0.000000,0.000000,0.019540,-0.020135,0.016734
3.114949,129,0.000000,0.000000,0.000000,0.021127,-0.012157,0.009277
3.137685,130,0.000000,0.000000,0.000000,0.017328,-0.005766,0.012118
3.159322,131,0.000000,0.000000,0.000000,0.003150,0.004308,0.013559
3.181388,132,0.000000,0.000000,0.000000,-0.002142,0.013241,0.005825
3.203624,133,0.000000,0.000000,0.000000,0.002363,0.020454,0.004348
3.225689,134,0.000000,0.000000,0.000000,0.004494,0.022584,0.003450
3.247951,135,0.000000,0.000000,0.000000,-0.005967,0.023649,-0.000191
3.270378,136,0.000000,0.000000,0.000000,-0.025822,0.028894,-0.003248
3.292357,137,0.000000,0.000000,0.000000,-0.023388,0.029630,-0.014728
3.314671,138,0.000000,0.000000,0.000000,-0.004706,0.026845,-0.018955
3.336786,139,0.000000,0.000000,0.000000,0.001819,0.020042,-0.001222
3.358913,140,0.000000,0.000000,0.000000,0.001713,0.001689,0.008641
3.381438,141,0.000000,0.000000,0.000000,0.014222,-0.034153,0.018859
3.403531,142,0.000000,0.000000,0.000000,0.030847,-0.081846,0.053201
3.425698,143,0.000000,0.000000,0.000000,0.029917,-0.166690,0.062256
3.448091,144,0.000000,0.000000,0.000000,0.011103,-0.327613,0.058128
3.470267,145,0.000000,0.000000,0.000000,0.017396,-0.602654,0.040940
3.492451,146,0.000000,0.000000,0.000000,0.021756,-1.003030,-0.019299
3.515290,147,0.000000,0.000000,0.000000,0.029442,-1.494298,-0.124370
3.536681,148,0.000000,0.000000,0.000000,0.016503,-1.830711,-0.161487
3.558687,149,0.000000,0.000000,0.000000,-0.063717,-1.938700,-0.115329
3.581284,150,0.000000,0.000000,0.000000,-0.173029,-1.893892,-0.050308
3.604364,151,0.000000,0.000000,0.000000,-0.259797,-1.807385,-0.019015
3.625657,152,0.000000,0.000000,0.000000,-0.330504,-1.709232,0.020094
3.648135,153,0.000000,0.000000,0.000000,-0.370103,-1.532091,0.079512
3.670589,154,0.000000,0.000000,0.000000,-0.429637,-1.311622,0.112652
3.692539,155,0.000000,0.000000,0.000000,-0.579450,-1.177393,0.149189
3.714959,156,0.000000,0.000000,0.000000,-0.649811,-1.087634,0.161609
3.736966,157,0.000000,0.000000,0.000000,-0.626837,-0.944576,0.156948
3.759219,158,0.000000,0.000000,0.000000,-0.599777,-0.764981,0.173617
3.781609,159,0.000000,0.000000,0.000000,-0.576464,-0.579480,0.221965
3.804225,160,0.000000,0.000000,0.000000,-0.557822,-0.384805,0.268310
3.827256,161,0.000000,0.000000,0.000000,-0.592467,-0.210500,0.276659
3.848155,162,0.000000,0.000000,0.000000,-0.640250,-0.076954,0.301593
3.871451,163,0.000000,0.000000,0.000000,-0.619201,0.044596,0.332741
3.897558,164,0.000000,0.000000,0.000000,-0.579266,0.140337,0.333747
3.920049,165,0.000000,0.000000,0.000000,-0.522219,0.184667,0.306798
3.942005,166,0.000000,0.000000,0.000000,-0.452480,0.213395,0.289464
3.964427,167,0.000000,0.000000,0.000000,-0.402847,0.242979,0.277069
3.986708,168,0.000000,0.000000,0.000000,-0.372988,0.297174,0.271088
4.008969,169,0.000000,0.000000,0.000000,-0.336515,0.352157,0.249372
4.065214,170,0.000000,0.000000,0.000000,-0.333446,0.395832,0.200258
4.087236,171,0.000000,0.000000,0.000000,-0.313509,0.408615,0.196350
4.109260,172,0.000000,0.000000,0.000000,-0.340587,0.400093,0.201699
4.131525,173,0.000000,0.000000,0.000000,-0.469095,0.261108,0.160008
4.153778,174,0.000000,0.000000,0.000000,-0.520649,-0.045330,0.046338
4.175996,175,0.000000,0.000000,0.000000,-0.404358,-0.421442,0.032835
4.198151,176,0.000000,0.000000,0.000000,-0.253669,-0.851775,0.066102
4.220474,177,0.000000,0.000000,0.000000,-0.131617,-1.245532,-0.035250
4.242689,178,0.000000,0.000000,0.000000,-0.039721,-1.529338,-0.147599
4.265005,179,0.000000,0.000000,0.000000,0.003881,-1.686674,-0.167173
4.287504,180,0.000000,0.000000,0.000000,0.035802,-1.745375,-0.123584
4.309433,181,0.000000,0.000000,0.000000,0.089320,-1.746851,-0.064957
4.331683,182,0.000000,0.000000,0.000000,0.137830,-1.741879,-0.059535
4.354794,183,0.000000,0.000000,0.000000,0.163999,-1.706692,-0.062074
4.376402,184,0.000000,0.000000,0.000000,0.191286,-1.672117,-0.054859
4.398352,185,0.000000,0.000000,0.000000,0.246471,-1.657071,-0.055391
4.420649,186,0.000000,0.000000,0.000000,0.296633,-1.647652,-0.071910
4.442863,187,0.000000,0.000000,0.000000,0.338584,-1.614051,-0.070481
4.465141,188,0.000000,0.000000,0.000000,0.403466,-1.511671,-0.081376
4.487475,189,0.000000,0.000000,0.000000,0.463181,-1.364469,-0.088766
4.510731,190,0.000000,0.000000,0.000000,0.524282,-1.181621,-0.082571
4.531739,191,0.000000,0.000000,0.000000,0.619074,-0.940636,-0.087884
4.554835,192,0.000000,0.000000,0.000000,0.745963,-0.576472,-0.110010
4.576271,193,0.000000,0.000000,0.000000,0.812470,-0.232848,-0.167058
4.598552,194,0.000000,0.000000,0.000000,0.839531,0.041834,-0.236225
4.620646,195,0.000000,0.000000,0.000000,0.882167,0.323653,-0.290119
4.643069,196,0.000000,0.000000,0.000000,0.960037,0.617887,-0.340404
4.665217,197,0.000000,0.000000,0.000000,1.079700,0.894590,-0.394611
4.687677,198,0.000000,0.000000,0.000000,1.254233,1.215495,-0.494697
4.709801,199,0.000000,0.000000,0.000000,1.439991,1.577017,-0.609503
4.731888,200,0.000000,0.000000,0.000000,1.626125,1.962401,-0.706401
4.754117,201,0.000000,0.000000,0.000000,1.719454,2.266385,-0.784299
4.776410,202,0.000000,0.000000,0.000000,1.665071,2.422656,-0.807497
4.798640,203,0.000000,0.000000,0.000000,1.647819,2.462969,-0.819226
4.821543,204,0.000000,0.000000,0.000000,1.744362,2.551722,-0.837977
4.843494,205,0.000000,0.000000,0.000000,1.702946,2.711766,-0.752791
4.865455,206,0.000000,0.000000,0.000000,1.502447,2.813054,-0.591379
4.887630,207,0.000000,0.000000,0.000000,1.278507,2.837643,-0.498466
4.910205,208,0.000000,0.000000,0.000000,1.037732,2.863388,-0.438931
4.931960,209,0.000000,0.000000,0.000000,0.817820,2.886147,-0.370186
4.954206,210,0.000000,0.000000,0.000000,0.596747,2.800870,-0.358186
4.976618,211,0.000000,0.000000,0.000000,0.405703,2.654762,-0.344713
4.998804,212,0.000000,0.000000,0.000000,0.265269,2.513737,-0.314352
5.021112,213,0.000000,0.000000,0.000000,0.176947,2.354081,-0.272614
5.068184,214,0.000000,0.000000,0.000000,0.159756,1.853386,-0.296986
5.087787,215,0.000000,0.000000,0.000000,0.131168,1.676333,-0.333969
5.110229,216,0.000000,0.000000,0.000000,0.067798,1.554291,-0.333113
5.132873,217,0.000000,0.000000,0.000000,0.071626,1.404548,-0.357537
5.154313,218,0.000000,0.000000,0.000000,0.084121,1.256088,-0.393758
5.177685,219,0.000000,0.000000,0.000000,0.005959,1.184640,-0.353859
5.198834,220,0.000000,0.000000,0.000000,-0.054183,1.158009,-0.361002
5.221082,221,0.000000,0.000000,0.000000,-0.067910,1.124743,-0.412159
5.243641,222,0.000000,0.000000,0.000000,-0.173462,1.144196,-0.428442
5.265613,223,0.000000,0.000000,0.000000,-0.325534,1.254097,-0.481631
5.287815,224,0.000000,0.000000,0.000000,-0.400804,1.417227,-0.509806
5.311163,225,0.000000,0.000000,0.000000,-0.516311,1.556864,-0.486129
5.332138,226,0.000000,0.000000,0.000000,-0.616911,1.629279,-0.482998
5.354555,227,0.000000,0.000000,0.000000,-0.597884,1.653126,-0.459757
5.376717,228,0.000000,0.000000,0.000000,-0.559810,1.638942,-0.437838
5.398899,229,0.000000,0.000000,0.000000,-0.477419,1.527241,-0.390789
5.421121,230,0.000000,0.000000,0.000000,-0.435566,1.330757,-0.345849
5.443775,231,0.000000,0.000000,0.000000,-0.454768,1.128675,-0.369829
5.465712,232,0.000000,0.000000,0.000000,-0.469495,0.924491,-0.437612
5.488685,233,0.000000,0.000000,0.000000,-0.502981,0.718096,-0.483585
5.511032,234,0.000000,0.000000,0.000000,-0.520418,0.549974,-0.546217
5.532379,235,0.000000,0.000000,0.000000,-0.543069,0.433917,-0.619320
5.554718,236,0.000000,0.000000,0.000000,-0.596493,0.377013,-0.663198
5.577141,237,0.000000,0.000000,0.000000,-0.649001,0.387456,-0.730680
5.599129,238,0.000000,0.000000,0.000000,-0.690415,0.469927,-0.894886
5.621345,239,0.000000,0.000000,0.000000,-0.732843,0.632646,-0.977780
5.644011,240,0.000000,0.000000,0.000000,-0.688106,0.779219,-0.857059
5.665846,241,0.000000,0.000000,0.000000,-0.592634,0.856162,-0.704504
5.688035,242,0.000000,0.000000,0.000000,-0.499067,0.903855,-0.565186
5.711207,243,0.000000,0.000000,0.000000,-0.277027,0.888706,-0.434898
5.732414,244,0.000000,0.000000,0.000000,-0.057446,0.763127,-0.334329
5.755084,245,0.000000,0.000000,0.000000,0.064983,0.564323,-0.253506
5.777651,246,0.000000,0.000000,0.000000,0.193391,0.359093,-0.229622
5.799302,247,0.000000,0.000000,0.000000,0.285200,0.159223,-0.167425
5.821494,248,0.000000,0.000000,0.000000,0.246259,-0.025942,-0.145634
5.843717,249,0.000000,0.000000,0.000000,0.252612,-0.131629,-0.191634
5.865919,250,0.000000,0.000000,0.000000,0.347801,-0.223386,-0.160318
5.888136,251,0.000000,0.000000,0.000000,0.377466,-0.362065,-0.019240
5.911286,252,0.000000,0.000000,0.000000,0.402145,-0.559804,0.211304
5.932615,253,0.000000,0.000000,0.000000,0.536118,-0.789374,0.359002
5.954748,254,0.000000,0.000000,0.000000,0.784081,-1.120777,0.400962
5.977684,255,0.000000,0.000000,0.000000,0.970933,-1.530053,0.426481
5.999260,256,0.000000,0.000000,0.000000,0.914663,-1.945132,0.499295
6.021382,257,0.000000,0.000000,0.000000,0.813243,-2.256279,0.502132
6.067856,258,0.000000,0.000000,0.000000,0.731915,-2.588394,0.357957
6.088291,259,0.000000,0.000000,0.000000,0.538116,-2.633512,0.411451
6.112370,260,0.000000,0.000000,0.000000,0.361047,-2.583434,0.472163
6.132515,261,0.000000,0.000000,0.000000,0.389296,-2.513127,0.402588
6.155617,262,0.000000,0.000000,0.000000,0.434932,-2.445900,0.322820
6.177473,263,0.000000,0.000000,0.000000,0.315380,-2.354636,0.383736
6.199255,264,0.000000,0.000000,0.000000,0.278202,-2.252394,0.407441
6.221530,265,0.000000,0.000000,0.000000,0.339166,-2.239646,0.357420
6.243924,266,0.000000,0.000000,0.000000,0.312706,-2.319576,0.369526
6.266016,267,0.000000,0.000000,0.000000,0.134125,-2.290797,0.440650
6.288392,268,0.000000,0.000000,0.000000,0.038236,-2.104524,0.406806
6.311400,269,0.000000,0.000000,0.000000,0.034665,-1.864748,0.309613
6.332629,270,0.000000,0.000000,0.000000,0.027127,-1.620380,0.299742
6.354976,271,0.000000,0.000000,0.000000,-0.001934,-1.340530,0.369447
6.377585,272,0.000000,0.000000,0.000000,0.007689,-1.057627,0.360116
6.399431,273,0.000000,0.000000,0.000000,0.035542,-0.800754,0.308788
6.421674,274,0.000000,0.000000,0.000000,0.040570,-0.555899,0.297035
6.444343,275,0.000000,0.000000,0.000000,-0.007788,-0.323467,0.313207
6.466179,276,0.000000,0.000000,0.000000,-0.034419,-0.102124,0.307888
6.488471,277,0.000000,0.000000,0.000000,-0.025113,0.088698,0.272163
6.511228,278,0.000000,0.000000,0.000000,-0.013054,0.235815,0.239863
6.532789,279,0.000000,0.000000,0.000000,-0.024418,0.334701,0.217992
6.554977,280,0.000000,0.000000,0.000000,-0.048231,0.419540,0.208383
6.577674,281,0.000000,0.000000,0.000000,-0.055636,0.482182,0.210233
6.599592,282,0.000000,0.000000,0.000000,-0.055965,0.512330,0.218393
6.621727,283,0.000000,0.000000,0.000000,-0.069026,0.495531,0.223309
6.644180,284,0.000000,0.000000,0.000000,-0.074486,0.438384,0.216651
6.666373,285,0.000000,0.000000,0.000000,-0.066863,0.372562,0.214977
6.688452,286,0.000000,0.000000,0.000000,-0.060206,0.326590,0.233668
6.711247,287,0.000000,0.000000,0.000000,-0.077830,0.279031,0.240632
6.732770,288,0.000000,0.000000,0.000000,-0.115492,0.221507,0.217718
6.755347,289,0.000000,0.000000,0.000000,-0.142247,0.165703,0.175385
6.777716,290,0.000000,0.000000,0.000000,-0.137865,0.120275,0.131797
6.801017,291,0.000000,0.000000,0.000000,-0.122808,0.084357,0.108129
6.821812,292,0.000000,0.000000,0.000000,-0.105621,0.060678,0.096178
6.844344,293,0.000000,0.000000,0.000000,-0.106577,0.049782,0.084870
6.866356,294,0.000000,0.000000,0.000000,-0.116398,0.050269,0.049138
6.888786,295,0.000000,0.000000,0.000000,-0.107019,0.048794,0.013850
6.911857,296,0.000000,0.000000,0.000000,-0.116799,0.049372,0.021195
6.933113,297,0.000000,0.000000,0.000000,-0.155883,0.057727,0.064012
6.955551,298,0.000000,0.000000,0.000000,-0.236548,0.080542,0.140465
6.978008,299,0.000000,0.000000,0.000000,-0.287062,0.110069,0.183732
7.000100,300,0.000000,0.000000,0.000000,-0.247735,0.127281,0.137491
7.022000,301,0.000000,0.000000,0.000000,-0.189638,0.137818,0.059638
7.078383,302,0.000000,0.000000,0.000000,-0.070194,0.081818,0.000219
7.099789,303,0.000000,0.000000,0.000000,0.002643,0.047265,-0.035371
7.121946,304,0.000000,0.000000,0.000000,0.054964,0.023662,-0.067393
7.144514,305,0.000000,0.000000,0.000000,0.063764,0.017814,-0.078925
7.166603,306,0.000000,0.000000,0.000000,0.053106,0.029810,-0.086761
7.188658,307,0.000000,0.000000,0.000000,0.024560,0.046033,-0.071615
7.211412,308,0.000000,0.000000,0.000000,-0.054181,0.070401,-0.035068
7.233374,309,0.000000,0.000000,0.000000,-0.144550,0.086003,0.004589
7.255661,310,0.000000,0.000000,0.000000,-0.230280,0.096111,0.048380
7.277961,311,0.000000,0.000000,0.000000,-0.239914,0.081852,0.033876
7.299954,312,0.000000,0.000000,0.000000,-0.205159,0.071367,0.008020
7.322984,313,0.000000,0.000000,0.000000,-0.153522,0.087312,-0.006396
7.344884,314,0.000000,0.000000,0.000000,-0.080585,0.111159,-0.034105
7.366829,315,0.000000,0.000000,0.000000,-0.017722,0.126072,-0.055776
7.389086,316,0.000000,0.000000,0.000000,0.019296,0.125795,-0.062734
7.411360,317,0.000000,0.000000,0.000000,0.054971,0.112357,-0.072143
7.433414,318,0.000000,0.000000,0.000000,0.087207,0.098231,-0.076150
7.455791,319,0.000000,0.000000,0.000000,0.085372,0.084794,-0.069314
7.479152,320,0.000000,0.000000,0.000000,0.051742,0.067826,-0.058973
7.500299,321,0.000000,0.000000,0.000000,0.028607,0.051847,-0.057531
7.523595,322,0.000000,0.000000,0.000000,0.016068,0.034727,-0.056710
7.544745,323,0.000000,0.000000,0.000000,-0.002152,0.010059,-0.046956
7.567231,324,0.000000,0.000000,0.000000,-0.015734,-0.028291,-0.029911
7.589374,325,0.000000,0.000000,0.000000,-0.001474,-0.066096,-0.028515
7.612344,326,0.000000,0.000000,0.000000,0.015211,-0.092317,-0.017683
7.633847,327,0.000000,0.000000,0.000000,0.008675,-0.103137,0.002035
7.656122,328,0.000000,0.000000,0.000000,0.006106,-0.110426,0.016462
7.678215,329,0.000000,0.000000,0.000000,0.014594,-0.112667,0.028366
7.700479,330,0.000000,0.000000,0.000000,0.024893,-0.102836,0.046476
7.723843,331,0.000000,0.000000,0.000000,0.038320,-0.093086,0.076790
7.744960,332,0.000000,0.000000,0.000000,0.046472,-0.096033,0.117279
7.767094,333,0.000000,0.000000,0.000000,0.038975,-0.094857,0.163955
7.790395,334,0.000000,0.000000,0.000000,0.026592,-0.096333,0.192029
7.811865,335,0.000000,0.000000,0.000000,0.003423,-0.110592,0.210926
7.834636,336,0.000000,0.000000,0.000000,-0.020290,-0.133206,0.214498
7.855983,337,0.000000,0.000000,0.000000,-0.017991,-0.141895,0.219205
7.878332,338,0.000000,0.000000,0.000000,0.000907,-0.149295,0.227016
7.900604,339,0.000000,0.000000,0.000000,0.003693,-0.147164,0.235295
7.923837,340,0.000000,0.000000,0.000000,0.006663,-0.134925,0.247835
7.945127,341,0.000000,0.000000,0.000000,0.017073,-0.116648,0.249966
7.967867,342,0.000000,0.000000,0.000000,0.017132,-0.094688,0.236084
7.989477,343,0.000000,0.000000,0.000000,-0.009632,-0.076091,0.215011
8.012356,344,0.000000,0.000000,0.000000,-0.047703,-0.062375,0.199189
8.079145,345,0.000000,0.000000,0.000000,-0.069589,-0.061963,0.149256
8.101580,346,0.000000,0.000000,0.000000,-0.076028,-0.061963,0.135657
8.123431,347,0.000000,0.000000,0.000000,-0.083340,-0.058113,0.110796
8.145617,348,0.000000,0.000000,0.000000,-0.091230,-0.046805,0.087570
8.168211,349,0.000000,0.000000,0.000000,-0.092891,-0.033739,0.070744
8.189975,350,0.000000,0.000000,0.000000,-0.088677,-0.013992,0.055669
8.212231,351,0.000000,0.000000,0.000000,-0.090530,0.024358,0.041021
8.234666,352,0.000000,0.000000,0.000000,-0.118227,0.130541,0.037615
8.257041,353,0.000000,0.000000,0.000000,-0.137008,0.350653,0.059338
8.279047,354,0.000000,0.000000,0.000000,-0.119204,0.628209,0.085930
8.301359,355,0.000000,0.000000,0.000000,-0.096967,0.832141,0.082156
8.323960,356,0.000000,0.000000,0.000000,-0.097755,0.954179,0.066155
8.346273,357,0.000000,0.000000,0.000000,-0.110511,1.010018,0.048009
8.368507,358,0.000000,0.000000,0.000000,-0.108253,1.022223,0.012804
8.389852,359,0.000000,0.000000,0.000000,-0.099200,0.996079,-0.028277
8.412240,360,0.000000,0.000000,0.000000,-0.098182,0.934595,-0.072486
8.435002,361,0.000000,0.000000,0.000000,-0.089338,0.860647,-0.126821
8.456830,362,0.000000,0.000000,0.000000,-0.072474,0.772364,-0.169659
8.479411,363,0.000000,0.000000,0.000000,-0.072852,0.682360,-0.184284
8.501644,364,0.000000,0.000000,0.000000,-0.084327,0.579540,-0.181378
8.523518,365,0.000000,0.000000,0.000000,-0.109373,0.474212,-0.198134
8.545640,366,0.000000,0.000000,0.000000,-0.139856,0.356923,-0.206235
8.568268,367,0.000000,0.000000,0.000000,-0.160752,0.238157,-0.203572
8.590086,368,0.000000,0.000000,0.000000,-0.162178,0.123653,-0.200111
8.612655,369,0.000000,0.000000,0.000000,-0.143022,0.011488,-0.208592
8.634914,370,0.000000,0.000000,0.000000,-0.118134,-0.083020,-0.224843
8.658270,371,0.000000,0.000000,0.000000,-0.110650,-0.165566,-0.242168
8.679087,372,0.000000,0.000000,0.000000,-0.119879,-0.229517,-0.248473
8.701455,373,0.000000,0.000000,0.000000,-0.140809,-0.285432,-0.237132
8.724241,374,0.000000,0.000000,0.000000,-0.168107,-0.329351,-0.215995
8.745893,375,0.000000,0.000000,0.000000,-0.166331,-0.364262,-0.204051
8.768516,376,0.000000,0.000000,0.000000,-0.141309,-0.393378,-0.203877
8.791133,377,0.000000,0.000000,0.000000,-0.138391,-0.420831,-0.196721
8.812420,378,0.000000,0.000000,0.000000,-0.147243,-0.451967,-0.191771
8.835090,379,0.000000,0.000000,0.000000,-0.139046,-0.474616,-0.195066
8.857043,380,0.000000,0.000000,0.000000,-0.133476,-0.485512,-0.194544
8.879306,381,0.000000,0.000000,0.000000,-0.153583,-0.489119,-0.182560
8.902018,382,0.000000,0.000000,0.000000,-0.186096,-0.489008,-0.168637
8.923923,383,0.000000,0.000000,0.000000,-0.194151,-0.493269,-0.165358
8.946062,384,0.000000,0.000000,0.000000,-0.183254,-0.484991,-0.156836
8.969540,385,0.000000,0.000000,0.000000,-0.174003,-0.470488,-0.132989
8.990283,386,0.000000,0.000000,0.000000,-0.154203,-0.460490,-0.113460
9.012529,387,0.000000,0.000000,0.000000,-0.132521,-0.445166,-0.097858
9.071747,388,0.000000,0.000000,0.000000,-0.098843,-0.381494,-0.093052
9.090663,389,0.000000,0.000000,0.000000,-0.091386,-0.371253,-0.088303
9.112861,390,0.000000,0.000000,0.000000,-0.084913,-0.348472,-0.086450
9.135050,391,0.000000,0.000000,0.000000,-0.084369,-0.318534,-0.076318
9.157580,392,0.000000,0.000000,0.000000,-0.068072,-0.286409,-0.045369
9.179478,393,0.000000,0.000000,0.000000,-0.014038,-0.250358,-0.043890
9.202378,394,0.000000,0.000000,0.000000,0.075484,-0.209988,-0.078148
9.224293,395,0.000000,0.000000,0.000000,0.139411,-0.166480,-0.100592
9.246310,396,0.000000,0.000000,0.000000,0.122744,-0.145308,-0.090200
9.268961,397,0.000000,0.000000,0.000000,0.090231,-0.146130,-0.076490
9.290583,398,0.000000,0.000000,0.000000,0.079712,-0.151289,-0.067338
9.312897,399,0.000000,0.000000,0.000000,0.117117,-0.141291,-0.073585
9.336910,400,0.000000,0.000000,0.000000,0.197615,-0.122881,-0.066961
9.357360,401,0.000000,0.000000,0.000000,0.274558,-0.103387,-0.050917
9.379773,402,0.000000,0.000000,0.000000,0.336887,-0.070684,-0.028201
9.402313,403,0.000000,0.000000,0.000000,0.385745,-0.028073,-0.006206
9.423800,404,0.000000,0.000000,0.000000,0.439797,0.014370,0.014011
9.446222,405,0.000000,0.000000,0.000000,0.490820,0.054850,0.032180
9.470050,406,0.000000,0.000000,0.000000,0.562193,0.084810,0.045136
9.490805,407,0.000000,0.000000,0.000000,0.635153,0.096117,0.045536
9.513162,408,0.000000,0.000000,0.000000,0.724780,0.102886,0.045502
9.535364,409,0.000000,0.000000,0.000000,0.850215,0.096216,0.041635
9.557459,410,0.000000,0.000000,0.000000,0.987780,0.075588,0.047956
9.580055,411,0.000000,0.000000,0.000000,1.082688,0.059499,0.080047
9.602297,412,0.000000,0.000000,0.000000,1.162229,0.049466,0.108127
9.624309,413,0.000000,0.000000,0.000000,1.257149,0.034032,0.112926
9.646661,414,0.000000,0.000000,0.000000,1.338139,0.024334,0.110686
9.669078,415,0.000000,0.000000,0.000000,1.350460,0.026875,0.106124
9.691118,416,0.000000,0.000000,0.000000,1.350472,0.030315,0.073101
9.713632,417,0.000000,0.000000,0.000000,1.339109,0.017699,0.066517
9.735680,418,0.000000,0.000000,0.000000,1.168611,-0.000351,0.106876
9.757585,419,0.000000,0.000000,0.000000,0.959454,-0.013349,0.113459
9.781088,420,0.000000,0.000000,0.000000,0.849090,-0.021760,0.067764
9.802412,421,0.000000,0.000000,0.000000,0.790755,-0.029837,0.024788
9.824334,422,0.000000,0.000000,0.000000,0.762631,-0.041311,0.002384
9.846949,423,0.000000,0.000000,0.000000,0.779627,-0.054453,-0.012386
9.869324,424,0.000000,0.000000,0.000000,0.859516,-0.068579,-0.042247
9.891165,425,0.000000,0.000000,0.000000,0.962376,-0.082866,-0.098313
9.914318,426,0.000000,0.000000,0.000000,1.091290,-0.104616,-0.145006
9.936349,427,0.000000,0.000000,0.000000,1.144879,-0.152253,-0.126637
9.957961,428,0.000000,0.000000,0.000000,1.024546,-0.205926,-0.053870
9.980200,429,0.000000,0.000000,0.000000,0.779225,-0.215578,0.012985
10.002662,430,0.000000,0.000000,0.000000,0.544622,-0.223224,-0.032907
10.024401,431,0.000000,0.000000,0.000000,0.391678,-0.232778,-0.100768
10.074183,432,0.000000,0.000000,0.000000,0.251049,-0.208298,-0.002396
10.101752,433,0.000000,0.000000,0.000000,0.217620,-0.194039,-0.001510
10.123615,434,0.000000,0.000000,0.000000,0.180142,-0.185405,-0.005072
10.145925,435,0.000000,0.000000,0.000000,0.137247,-0.181387,-0.007047
10.168574,436,0.000000,0.000000,0.000000,0.075894,-0.183239,0.001897
10.190532,437,0.000000,0.000000,0.000000,0.035795,-0.180454,0.008521
10.212657,438,0.000000,0.000000,0.000000,-0.001248,-0.181651,0.002940
10.235801,439,0.000000,0.000000,0.000000,-0.030254,-0.200171,0.002008
10.257561,440,0.000000,0.000000,0.000000,-0.048510,-0.227045,0.019219
10.280976,441,0.000000,0.000000,0.000000,-0.067975,-0.247862,0.062694
10.302679,442,0.000000,0.000000,0.000000,-0.066048,-0.274771,0.097228
10.324210,443,0.000000,0.000000,0.000000,-0.062882,-0.309756,0.111221
10.346380,444,0.000000,0.000000,0.000000,-0.066344,-0.336387,0.090271
10.368822,445,0.000000,0.000000,0.000000,-0.086607,-0.346384,0.069754
10.390785,446,0.000000,0.000000,0.000000,-0.115914,-0.340646,0.052489
10.413195,447,0.000000,0.000000,0.000000,-0.115387,-0.325487,0.045845
10.435663,448,0.000000,0.000000,0.000000,-0.093920,-0.305734,0.046753
10.457706,449,0.000000,0.000000,0.000000,-0.087395,-0.274891,0.053445
10.479981,450,0.000000,0.000000,0.000000,-0.079528,-0.240640,0.059635
10.502292,451,0.000000,0.000000,0.000000,-0.069974,-0.207206,0.066982
10.524214,452,0.000000,0.000000,0.000000,-0.062760,-0.176556,0.069900
10.546737,453,0.000000,0.000000,0.000000,-0.050631,-0.145141,0.076014
10.569446,454,0.000000,0.000000,0.000000,-0.032000,-0.116622,0.067903
10.591411,455,0.000000,0.000000,0.000000,-0.016397,-0.091221,0.055942
10.613396,456,0.000000,0.000000,0.000000,-0.007191,-0.070159,0.042261
10.635856,457,0.000000,0.000000,0.000000,-0.025385,-0.057427,0.040884
10.657904,458,0.000000,0.000000,0.000000,-0.055866,-0.051116,0.036940
10.680003,459,0.000000,0.000000,0.000000,-0.084182,-0.048087,0.024673
10.703230,460,0.000000,0.000000,0.000000,-0.088442,-0.041695,0.020899
10.724377,461,0.000000,0.000000,0.000000,-0.092424,-0.040050,0.013609
10.746599,462,0.000000,0.000000,0.000000,-0.088051,-0.032593,-0.001472
10.770070,463,0.000000,0.000000,0.000000,-0.069570,-0.012443,-0.031517
10.791115,464,0.000000,0.000000,0.000000,-0.055065,0.002639,-0.030777
10.813566,465,0.000000,0.000000,0.000000,-0.052043,0.008493,-0.009496
10.836370,466,0.000000,0.000000,0.000000,-0.047121,0.013495,-0.006108
10.857931,467,0.000000,0.000000,0.000000,-0.024967,0.024358,-0.002969
10.880203,468,0.000000,0.000000,0.000000,-0.010001,0.028786,0.006953
10.902652,469,0.000000,0.000000,0.000000,-0.019078,0.027966,0.026128
10.924380,470,0.000000,0.000000,0.000000,-0.021839,0.023949,0.045217
10.946909,471,0.000000,0.000000,0.000000,-0.003729,0.024528,0.044758
10.969297,472,0.000000,0.000000,0.000000,0.013593,0.023295,0.036346
10.991297,473,0.000000,0.000000,0.000000,0.013837,0.017726,0.035691
11.013487,474,0.000000,0.000000,0.000000,0.013050,0.003300,0.031951
11.080564,475,0.000000,0.000000,0.000000,0.000367,-0.037421,0.049684
11.103406,476,0.000000,0.000000,0.000000,-0.005336,-0.043923,0.037966
11.125140,477,0.000000,0.000000,0.000000,0.000135,-0.043922,0.018247
11.146991,478,0.000000,0.000000,0.000000,0.003053,-0.044576,0.024882
11.169388,479,0.000000,0.000000,0.000000,0.008923,-0.045565,0.038897
11.191202,480,0.000000,0.000000,0.000000,0.014904,-0.048836,0.042371
11.213723,481,0.000000,0.000000,0.000000,0.021185,-0.044087,0.049417
11.236268,482,0.000000,0.000000,0.000000,0.026755,-0.039902,0.051547
11.257992,483,0.000000,0.000000,0.000000,0.019819,-0.034087,0.044878
11.280239,484,0.000000,0.000000,0.000000,0.000477,-0.028482,0.039107
11.303168,485,0.000000,0.000000,0.000000,-0.017221,-0.020857,0.034793
11.324409,486,0.000000,0.000000,0.000000,-0.016862,-0.011436,0.029954
11.347225,487,0.000000,0.000000,0.000000,-0.007600,-0.002503,0.020777
11.369690,488,0.000000,0.000000,0.000000,-0.003883,0.012899,0.014796
11.391436,489,0.000000,0.000000,0.000000,-0.012815,0.020280,0.017766
11.413547,490,0.000000,0.000000,0.000000,-0.021748,0.026916,0.010391
11.436207,491,0.000000,0.000000,0.000000,-0.021060,0.031999,-0.000044
11.458113,492,0.000000,0.000000,0.000000,-0.023323,0.034895,-0.009717
11.480131,493,0.000000,0.000000,0.000000,-0.036106,0.035550,-0.011471
11.503338,494,0.000000,0.000000,0.000000,-0.046515,0.037438,-0.008878
11.524545,495,0.000000,0.000000,0.000000,-0.046349,0.037438,-0.015322
11.547069,496,0.000000,0.000000,0.000000,-0.048890,0.039569,-0.014124
11.569927,497,0.000000,0.000000,0.000000,-0.049712,0.038093,-0.014125
11.591437,498,0.000000,0.000000,0.000000,-0.046106,0.039570,-0.008388
11.613763,499,0.000000,0.000000,0.000000,-0.056869,0.035963,-0.009454
11.636257,500,0.000000,0.000000,0.000000,-0.058068,0.030394,-0.016911
11.658012,501,0.000000,0.000000,0.000000,-0.049628,0.029983,-0.020073
11.680291,502,0.000000,0.000000,0.000000,-0.048892,0.029984,-0.009177
11.703291,503,0.000000,0.000000,0.000000,-0.055561,0.024902,-0.002409
11.724504,504,0.000000,0.000000,0.000000,-0.057038,0.022527,-0.001588
11.747422,505,0.000000,0.000000,0.000000,-0.047694,0.016958,-0.001966
11.769856,506,0.000000,0.000000,0.000000,-0.045512,0.012778,0.001096
11.791406,507,0.000000,0.000000,0.000000,-0.045841,0.008402,0.005434
11.813889,508,0.000000,0.000000,0.000000,-0.038518,-0.000774,0.001039
11.836331,509,0.000000,0.000000,0.000000,-0.033979,-0.005035,-0.008600
11.858042,510,0.000000,0.000000,0.000000,-0.040781,-0.006343,-0.012399
11.880665,511,0.000000,0.000000,0.000000,-0.054712,-0.004212,-0.019967
11.903297,512,0.000000,0.000000,0.000000,-0.055174,0.002012,-0.027591
11.924610,513,0.000000,0.000000,0.000000,-0.067465,0.011634,-0.021588
11.947389,514,0.000000,0.000000,0.000000,-0.094045,0.026381,-0.021566
11.969728,515,0.000000,0.000000,0.000000,-0.117892,0.039164,-0.022476
11.991482,516,0.000000,0.000000,0.000000,-0.126524,0.052225,-0.016530
12.013792,517,0.000000,0.000000,0.000000,-0.145943,0.056319,-0.022900
12.080817,518,0.000000,0.000000,0.000000,-0.242720,0.083640,-0.042075
12.103667,519,0.000000,0.000000,0.000000,-0.257684,0.095636,-0.046238
12.125591,520,0.000000,0.000000,0.000000,-0.270468,0.108419,-0.053806
12.147430,521,0.000000,0.000000,0.000000,-0.284039,0.124399,-0.064360
12.169710,522,0.000000,0.000000,0.000000,-0.292729,0.138902,-0.067666
12.191691,523,0.000000,0.000000,0.000000,-0.301084,0.152374,-0.067644
12.213995,524,0.000000,0.000000,0.000000,-0.316982,0.165158,-0.065547
12.236584,525,0.000000,0.000000,0.000000,-0.323078,0.172858,-0.064349
12.258331,526,0.000000,0.000000,0.000000,-0.318406,0.176298,-0.057137
12.280798,527,0.000000,0.000000,0.000000,-0.304125,0.170074,-0.040226
12.303785,528,0.000000,0.000000,0.000000,-0.291133,0.157946,-0.020119
12.324971,529,0.000000,0.000000,0.000000,-0.299112,0.144265,-0.017989
12.347854,530,0.000000,0.000000,0.000000,-0.311751,0.126943,-0.036180
12.370168,531,0.000000,0.000000,0.000000,-0.311635,0.108012,-0.042020
12.392062,532,0.000000,0.000000,0.000000,-0.300167,0.092445,-0.048383
12.414189,533,0.000000,0.000000,0.000000,-0.295518,0.076055,-0.063396
12.436404,534,0.000000,0.000000,0.000000,-0.316221,0.056881,-0.076213
12.458456,535,0.000000,0.000000,0.000000,-0.344411,0.041968,-0.088209
12.480911,536,0.000000,0.000000,0.000000,-0.367158,0.029596,-0.097496
12.503926,537,0.000000,0.000000,0.000000,-0.384798,0.022550,-0.118668
12.525066,538,0.000000,0.000000,0.000000,-0.383829,0.022794,-0.151165
12.547571,539,0.000000,0.000000,0.000000,-0.365550,0.033857,-0.174739
12.570223,540,0.000000,0.000000,0.000000,-0.353566,0.048117,-0.148762
12.592214,541,0.000000,0.000000,0.000000,-0.351169,0.057460,-0.126502
12.614455,542,0.000000,0.000000,0.000000,-0.348252,0.063685,-0.115439
12.636630,543,0.000000,0.000000,0.000000,-0.343968,0.074095,-0.097196
12.658738,544,0.000000,0.000000,0.000000,-0.347720,0.088841,-0.074205
12.680997,545,0.000000,0.000000,0.000000,-0.345457,0.098840,-0.064451
12.703894,546,0.000000,0.000000,0.000000,-0.346633,0.108461,-0.057682
12.725305,547,0.000000,0.000000,0.000000,-0.341307,0.123451,-0.053254
12.748256,548,0.000000,0.000000,0.000000,-0.331697,0.130421,-0.034491
12.770171,549,0.000000,0.000000,0.000000,-0.319736,0.135580,-0.026212
12.792131,550,0.000000,0.000000,0.000000,-0.303347,0.145989,-0.027989
12.814430,551,0.000000,0.000000,0.000000,-0.302062,0.158772,-0.044866
12.836680,552,0.000000,0.000000,0.000000,-0.313880,0.171388,-0.069730
12.858887,553,0.000000,0.000000,0.000000,-0.312670,0.181385,-0.094886
12.881223,554,0.000000,0.000000,0.000000,-0.294862,0.182450,-0.102315
12.903451,555,0.000000,0.000000,0.000000,-0.291667,0.180487,-0.095756
12.925445,556,0.000000,0.000000,0.000000,-0.302841,0.182040,-0.089476
12.947739,557,0.000000,0.000000,0.000000,-0.314641,0.187700,-0.099173
12.970054,558,0.000000,0.000000,0.000000,-0.316957,0.199905,-0.115598
12.992292,559,0.000000,0.000000,0.000000,-0.325973,0.211866,-0.122100
13.014608,560,0.000000,0.000000,0.000000,-0.339330,0.233616,-0.113723
13.081529,561,0.000000,0.000000,0.000000,-0.297655,0.293027,-0.103482
13.103669,562,0.000000,0.000000,0.000000,-0.285828,0.323868,-0.105972
13.125646,563,0.000000,0.000000,0.000000,-0.279925,0.347054,-0.108508
13.148443,564,0.000000,0.000000,0.000000,-0.285663,0.373274,-0.106035
13.170605,565,0.000000,0.000000,0.000000,-0.288616,0.424852,-0.108335
13.192390,566,0.000000,0.000000,0.000000,-0.280421,0.502483,-0.116457
13.214693,567,0.000000,0.000000,0.000000,-0.263696,0.564511,-0.137715
13.237187,568,0.000000,0.000000,0.000000,-0.253588,0.635507,-0.146492
13.259376,569,0.000000,0.000000,0.000000,-0.256130,0.738704,-0.148612
13.281513,570,0.000000,0.000000,0.000000,-0.248019,0.828707,-0.153000
13.303858,571,0.000000,0.000000,0.000000,-0.218592,0.874513,-0.172419
13.325712,572,0.000000,0.000000,0.000000,-0.205266,0.889503,-0.164603
13.348047,573,0.000000,0.000000,0.000000,-0.198743,0.890568,-0.151988
13.370480,574,0.000000,0.000000,0.000000,-0.189451,0.884754,-0.155728
13.392488,575,0.000000,0.000000,0.000000,-0.155822,0.871559,-0.167974
13.414959,576,0.000000,0.000000,0.000000,-0.119656,0.848743,-0.165478
13.437180,577,0.000000,0.000000,0.000000,-0.100709,0.820148,-0.143290
13.459320,578,0.000000,0.000000,0.000000,-0.100855,0.792827,-0.125314
13.481541,579,0.000000,0.000000,0.000000,-0.089139,0.784715,-0.117991
13.503800,580,0.000000,0.000000,0.000000,-0.047207,0.764608,-0.133438
13.526857,581,0.000000,0.000000,0.000000,-0.009647,0.731584,-0.139431
13.548130,582,0.000000,0.000000,0.000000,0.001925,0.698694,-0.118392
13.570566,583,0.000000,0.000000,0.000000,0.007332,0.662885,-0.109893
13.592742,584,0.000000,0.000000,0.000000,0.045500,0.624669,-0.126371
13.615127,585,0.000000,0.000000,0.000000,0.091908,0.581780,-0.128159
13.637558,586,0.000000,0.000000,0.000000,0.106872,0.524388,-0.116071
13.659569,587,0.000000,0.000000,0.000000,0.107247,0.488412,-0.110960
13.681637,588,0.000000,0.000000,0.000000,0.131463,0.445767,-0.137689
13.703908,589,0.000000,0.000000,0.000000,0.166645,0.393215,-0.148755
13.727549,590,0.000000,0.000000,0.000000,0.177806,0.333449,-0.127440
13.748088,591,0.000000,0.000000,0.000000,0.168350,0.276712,-0.116475
13.770485,592,0.000000,0.000000,0.000000,0.169877,0.217301,-0.110651
13.792671,593,0.000000,0.000000,0.000000,0.147540,0.162694,-0.064325
13.814891,594,0.000000,0.000000,0.000000,-0.001377,0.122196,0.057103
13.837212,595,0.000000,0.000000,0.000000,-0.062773,0.099332,0.057903
13.859727,596,0.000000,0.000000,0.000000,0.135185,0.102358,-0.172744
13.881941,597,0.000000,0.000000,0.000000,0.323598,0.134941,-0.329637
13.904013,598,0.000000,0.000000,0.000000,0.361761,0.150996,-0.269747
13.926853,599,0.000000,0.000000,0.000000,0.374082,0.141819,-0.183796
13.948348,600,0.000000,0.000000,0.000000,0.393750,0.134496,-0.179968
13.970963,601,0.000000,0.000000,0.000000,0.376723,0.137558,-0.165686
13.992732,602,0.000000,0.000000,0.000000,0.347163,0.137969,-0.148208
14.015164,603,0.000000,0.000000,0.000000,0.308803,0.129858,-0.123063
14.081972,604,0.000000,0.000000,0.000000,0.371711,0.118025,-0.101599
14.104042,605,0.000000,0.000000,0.000000,0.420702,0.130236,-0.063405
14.126074,606,0.000000,0.000000,0.000000,0.402958,0.133188,-0.026265
14.148607,607,0.000000,0.000000,0.000000,0.384605,0.137560,-0.028539
14.170955,608,0.000000,0.000000,0.000000,0.382475,0.133543,-0.030258
14.192812,609,0.000000,0.000000,0.000000,0.346061,0.122813,-0.016965
14.215104,610,0.000000,0.000000,0.000000,0.332020,0.107733,-0.017208
14.237653,611,0.000000,0.000000,0.000000,0.347976,0.090526,-0.035584
14.261106,612,0.000000,0.000000,0.000000,0.344177,0.080579,-0.029025
14.281944,613,0.000000,0.000000,0.000000,0.319236,0.083399,-0.016965
14.304177,614,0.000000,0.000000,0.000000,0.308039,0.093884,-0.032399
14.326133,615,0.000000,0.000000,0.000000,0.292578,0.096015,-0.040734
14.348619,616,0.000000,0.000000,0.000000,0.254904,0.082166,-0.029076
14.371070,617,0.000000,0.000000,0.000000,0.210539,0.063924,-0.021839
14.392942,618,0.000000,0.000000,0.000000,0.176583,0.045982,-0.019441
14.415380,619,0.000000,0.000000,0.000000,0.149709,0.022622,-0.022670
14.438072,620,0.000000,0.000000,0.000000,0.124520,-0.010400,-0.012017
14.459853,621,0.000000,0.000000,0.000000,0.092719,-0.035724,0.011442
14.481916,622,0.000000,0.000000,0.000000,0.070122,-0.049892,0.023049
14.505015,623,0.000000,0.000000,0.000000,0.050293,-0.054321,0.019986
14.526385,624,0.000000,0.000000,0.000000,0.030656,-0.058172,0.013315
14.549035,625,0.000000,0.000000,0.000000,0.022302,-0.054733,0.005169
14.571211,626,0.000000,0.000000,0.000000,0.010335,-0.052846,0.002272
14.593184,627,0.000000,0.000000,0.000000,-0.001266,-0.054567,-0.001202
14.615436,628,0.000000,0.000000,0.000000,0.001497,-0.058585,-0.021333
14.637832,629,0.000000,0.000000,0.000000,-0.004883,-0.075873,-0.056134
14.660241,630,0.000000,0.000000,0.000000,-0.022326,-0.107101,-0.096256
14.682043,631,0.000000,0.000000,0.000000,-0.026250,-0.161540,-0.119630
14.704878,632,0.000000,0.000000,0.000000,-0.028740,-0.214914,-0.112030
14.726413,633,0.000000,0.000000,0.000000,-0.029076,-0.248836,-0.089349
14.748892,634,0.000000,0.000000,0.000000,-0.023667,-0.267768,-0.078099
14.771115,635,0.000000,0.000000,0.000000,-0.021103,-0.267768,-0.063673
14.793097,636,0.000000,0.000000,0.000000,-0.023510,-0.258181,-0.048627
14.815471,637,0.000000,0.000000,0.000000,-0.039304,-0.243511,-0.034588
14.838743,638,0.000000,0.000000,0.000000,-0.049087,-0.209723,-0.019174
14.860178,639,0.000000,0.000000,0.000000,-0.048953,-0.172850,-0.010057
14.882161,640,0.000000,0.000000,0.000000,-0.052670,-0.134466,-0.003343
14.905019,641,0.000000,0.000000,0.000000,-0.052015,-0.102098,0.001705
14.926510,642,0.000000,0.000000,0.000000,-0.050816,-0.076827,0.005907
14.948900,643,0.000000,0.000000,0.000000,-0.052077,-0.058966,0.023653
14.971238,644,0.000000,0.000000,0.000000,-0.047105,-0.054295,0.034909
14.993898,645,0.000000,0.000000,0.000000,-0.046155,-0.076045,0.039858
15.015585,646,0.000000,0.000000,0.000000,-0.046398,-0.150370,0.043227
15.081527,647,0.000000,0.000000,0.000000,0.012302,-0.598215,0.129303
15.105048,648,0.000000,0.000000,0.000000,-0.008748,-0.748561,0.180039
15.127873,649,0.000000,0.000000,0.000000,-0.012598,-0.869701,0.185195
15.148831,650,0.000000,0.000000,0.000000,-0.004297,-0.969485,0.201111
15.171485,651,0.000000,0.000000,0.000000,0.009650,-1.057854,0.227076
15.193787,652,0.000000,0.000000,0.000000,0.002315,-1.128406,0.272945
15.215488,653,0.000000,0.000000,0.000000,-0.005623,-1.185143,0.317552
15.237981,654,0.000000,0.000000,0.000000,0.012313,-1.221606,0.358941
15.260119,655,0.000000,0.000000,0.000000,0.054280,-1.243677,0.418723
15.282081,656,0.000000,0.000000,0.000000,0.079002,-1.204095,0.485861
15.305079,657,0.000000,0.000000,0.000000,0.003763,-1.156759,0.585384
15.326503,658,0.000000,0.000000,0.000000,-0.149614,-1.345026,0.666993
15.348889,659,0.000000,0.000000,0.000000,-0.159521,-1.676445,0.834268
15.371333,660,0.000000,0.000000,0.000000,-0.008029,-1.885568,1.042249
15.393707,661,0.000000,0.000000,0.000000,0.180650,-1.948918,1.186623
15.415652,662,0.000000,0.000000,0.000000,0.305968,-1.952469,1.189437
15.438876,663,0.000000,0.000000,0.000000,0.391298,-1.926938,1.111362
15.460511,664,0.000000,0.000000,0.000000,0.402680,-1.842581,1.026165
15.482172,665,0.000000,0.000000,0.000000,0.352345,-1.742471,0.998931
15.504680,666,0.000000,0.000000,0.000000,0.330395,-1.706797,1.044783
15.526601,667,0.000000,0.000000,0.000000,0.317077,-1.700162,0.998071
15.549062,668,0.000000,0.000000,0.000000,0.270604,-1.715487,0.857346
15.571179,669,0.000000,0.000000,0.000000,0.243318,-1.861009,0.765178
15.593790,670,0.000000,0.000000,0.000000,0.268315,-2.182837,0.767220
15.615611,671,0.000000,0.000000,0.000000,0.384523,-2.463312,0.849400
15.637880,672,0.000000,0.000000,0.000000,0.483958,-2.549158,0.818221
15.660372,673,0.000000,0.000000,0.000000,0.605043,-2.538691,0.762864
15.682143,674,0.000000,0.000000,0.000000,0.748321,-2.426594,0.834232
15.704417,675,0.000000,0.000000,0.000000,0.828402,-2.212407,0.921724
15.727623,676,0.000000,0.000000,0.000000,0.769925,-1.926793,0.895680
15.748885,677,0.000000,0.000000,0.000000,0.724043,-1.616103,0.801879
15.771441,678,0.000000,0.000000,0.000000,0.740104,-1.260065,0.722916
15.793564,679,0.000000,0.000000,0.000000,0.763650,-0.876119,0.630314
15.815473,680,0.000000,0.000000,0.000000,0.767951,-0.526348,0.493583
15.837914,681,0.000000,0.000000,0.000000,0.832334,-0.201021,0.422238
15.860801,682,0.000000,0.000000,0.000000,0.895619,0.073576,0.345532
15.882170,683,0.000000,0.000000,0.000000,0.807143,0.256940,0.232017
15.904422,684,0.000000,0.000000,0.000000,0.686030,0.343557,0.203189
15.927483,685,0.000000,0.000000,0.000000,0.601304,0.381530,0.241177
15.948933,686,0.000000,0.000000,0.000000,0.438414,0.400682,0.235694
15.971354,687,0.000000,0.000000,0.000000,0.187554,0.370589,0.203138
15.993398,688,0.000000,0.000000,0.000000,0.101269,0.318224,0.196945
16.015577,689,0.000000,0.000000,0.000000,0.114760,0.283371,0.123068
16.038003,690,0.000000,0.000000,0.000000,0.091471,0.303235,-0.023394
16.094641,691,0.000000,0.000000,0.000000,-0.087313,0.479838,-0.206979
16.115649,692,0.000000,0.000000,0.000000,-0.065912,0.550667,-0.261661
16.137977,693,0.000000,0.000000,0.000000,-0.065382,0.635345,-0.308821
16.160381,694,0.000000,0.000000,0.000000,-0.136813,0.691428,-0.329310
16.182339,695,0.000000,0.000000,0.000000,-0.241957,0.763433,-0.323579
16.204725,696,0.000000,0.000000,0.000000,-0.317209,0.910624,-0.324304
16.226812,697,0.000000,0.000000,0.000000,-0.319717,1.063473,-0.331325
16.249043,698,0.000000,0.000000,0.000000,-0.290051,1.181584,-0.411399
16.271232,699,0.000000,0.000000,0.000000,-0.256577,1.251669,-0.450813
16.293698,700,0.000000,0.000000,0.000000,-0.191994,1.286091,-0.387319
16.316293,701,0.000000,0.000000,0.000000,-0.125935,1.394210,-0.326468
16.337810,702,0.000000,0.000000,0.000000,-0.098027,1.515513,-0.313076
16.360104,703,0.000000,0.000000,0.000000,-0.217891,1.588507,-0.391456
16.382392,704,0.000000,0.000000,0.000000,-0.392656,1.661090,-0.482993
16.404619,705,0.000000,0.000000,0.000000,-0.456751,1.735880,-0.522704
16.427290,706,0.000000,0.000000,0.000000,-0.459356,1.768082,-0.558953
16.448911,707,0.000000,0.000000,0.000000,-0.421283,1.803815,-0.622020
16.471157,708,0.000000,0.000000,0.000000,-0.393913,1.971373,-0.701417
16.493950,709,0.000000,0.000000,0.000000,-0.331387,2.127424,-0.779326
16.516320,710,0.000000,0.000000,0.000000,-0.285347,2.139184,-0.829349
16.537853,711,0.000000,0.000000,0.000000,-0.290916,2.079941,-0.828216
16.560156,712,0.000000,0.000000,0.000000,-0.298516,2.012720,-0.810674
16.582452,713,0.000000,0.000000,0.000000,-0.331329,2.088799,-0.801227
16.604619,714,0.000000,0.000000,0.000000,-0.311286,2.142005,-0.839740
16.626886,715,0.000000,0.000000,0.000000,-0.287148,2.134681,-0.905944
16.649008,716,0.000000,0.000000,0.000000,-0.287461,2.042623,-0.948562
16.671148,717,0.000000,0.000000,0.000000,-0.248579,1.895548,-0.895516
16.693781,718,0.000000,0.000000,0.000000,-0.213385,1.675437,-0.760838
16.716372,719,0.000000,0.000000,0.000000,-0.236716,1.399354,-0.653901
16.738038,720,0.000000,0.000000,0.000000,-0.256857,1.048348,-0.635416
16.760588,721,0.000000,0.000000,0.000000,-0.227344,0.686255,-0.662740
16.782536,722,0.000000,0.000000,0.000000,-0.174099,0.419932,-0.664762
16.804656,723,0.000000,0.000000,0.000000,-0.098089,0.236283,-0.644308
16.826919,724,0.000000,0.000000,0.000000,-0.034186,0.064763,-0.599848
16.848995,725,0.000000,0.000000,0.000000,-0.024489,-0.040064,-0.521199
16.871372,726,0.000000,0.000000,0.000000,-0.045466,-0.054400,-0.445132
16.893895,727,0.000000,0.000000,0.000000,-0.052588,-0.060961,-0.384449
16.917900,728,0.000000,0.000000,0.000000,-0.079754,-0.101776,-0.346268
16.938168,729,0.000000,0.000000,0.000000,-0.117184,-0.135942,-0.334284
16.960655,730,0.000000,0.000000,0.000000,-0.144454,-0.145119,-0.323986
16.982390,731,0.000000,0.000000,0.000000,-0.144750,-0.139139,-0.240798
17.004711,732,0.000000,0.000000,0.000000,-0.132836,-0.170276,-0.087199
17.027362,733,0.000000,0.000000,0.000000,-0.116076,-0.216772,0.051505
17.094073,734,0.000000,0.000000,0.000000,-0.058697,-0.235948,0.078364
17.117457,735,0.000000,0.000000,0.000000,-0.041132,-0.228491,0.076100
17.138223,736,0.000000,0.000000,0.000000,-0.038723,-0.230211,0.064137
17.160299,737,0.000000,0.000000,0.000000,-0.042219,-0.228492,0.050532
17.182473,738,0.000000,0.000000,0.000000,-0.050873,-0.224642,0.037881
17.204607,739,0.000000,0.000000,0.000000,-0.062202,-0.214233,0.021867
17.226983,740,0.000000,0.000000,0.000000,-0.063642,-0.206121,0.008597
17.249060,741,0.000000,0.000000,0.000000,-0.061511,-0.197356,0.009251
17.271366,742,0.000000,0.000000,0.000000,-0.061753,-0.185470,0.006766
17.293883,743,0.000000,0.000000,0.000000,-0.070853,-0.168970,0.004486
17.316591,744,0.000000,0.000000,0.000000,-0.082158,-0.150450,0.006999
17.337982,745,0.000000,0.000000,0.000000,-0.093198,-0.132584,0.023899
17.360179,746,0.000000,0.000000,0.000000,-0.096486,-0.119557,0.048047
17.382467,747,0.000000,0.000000,0.000000,-0.089006,-0.110757,0.071316
17.404694,748,0.000000,0.000000,0.000000,-0.091331,-0.097730,0.084476
17.427011,749,0.000000,0.000000,0.000000,-0.087590,-0.090029,0.095866
17.449151,750,0.000000,0.000000,0.000000,-0.078413,-0.082405,0.099148
17.471478,751,0.000000,0.000000,0.000000,-0.063909,-0.081750,0.100492
17.494118,752,0.000000,0.000000,0.000000,-0.060023,-0.087898,0.094999
17.516504,753,0.000000,0.000000,0.000000,-0.076845,-0.105707,0.072629
17.538184,754,0.000000,0.000000,0.000000,-0.092730,-0.122508,0.040093
17.560757,755,0.000000,0.000000,0.000000,-0.084388,-0.138075,0.008859
17.582529,756,0.000000,0.000000,0.000000,-0.074656,-0.157007,-0.008040
