ts_s,frame,accel_x,accel_y,accel_z,gyro_x,gyro_y,gyro_z
0.043056,0,0.000000,0.000000,0.000000,-0.001309,0.003505,0.003657
0.066421,1,0.000000,0.000000,0.000000,0.011341,0.003505,0.000161
0.088949,2,0.000000,0.000000,0.000000,0.011341,-0.002232,-0.005055
0.111658,3,0.000000,0.000000,0.000000,0.006836,-0.003130,-0.004344
0.134104,4,0.000000,0.000000,0.000000,0.002575,-0.004773,-0.004420
0.156048,5,0.000000,0.000000,0.000000,-0.002097,-0.005428,-0.001802
0.178552,6,0.000000,0.000000,0.000000,0.001424,-0.000756,-0.000661
0.201018,7,0.000000,0.000000,0.000000,0.002164,-0.001410,-0.000737
0.222978,8,0.000000,0.000000,0.000000,0.000577,0.003505,0.003524
0.245509,9,0.000000,0.000000,0.000000,-0.000245,0.003338,0.002952
0.267189,10,0.000000,0.000000,0.000000,0.002708,0.002197,0.002216
0.289367,11,0.000000,0.000000,0.000000,-0.002260,-0.001577,0.001309
0.311896,12,0.000000,0.000000,0.000000,-0.007586,-0.004119,0.000243
0.333882,13,0.000000,0.000000,0.000000,-0.009665,-0.006736,0.001694
0.356219,14,0.000000,0.000000,0.000000,-0.006880,-0.003540,0.003004
0.378589,15,0.000000,0.000000,0.000000,-0.005243,-0.005016,0.001728
0.400763,16,0.000000,0.000000,0.000000,-0.001554,-0.000344,0.002871
0.422640,17,0.000000,0.000000,0.000000,0.000986,0.001619,0.003115
0.445222,18,0.000000,0.000000,0.000000,0.003771,0.001375,0.003526
0.467276,19,0.000000,0.000000,0.000000,0.006389,0.000721,0.004424
0.492158,20,0.000000,0.000000,0.000000,0.001918,0.000477,-0.003763
0.511791,21,0.000000,0.000000,0.000000,0.001473,0.001375,0.004592
0.534042,22,0.000000,0.000000,0.000000,0.001637,0.002281,0.006314
0.556205,23,0.000000,0.000000,0.000000,0.007620,0.001786,0.009432
0.578907,24,0.000000,0.000000,0.000000,0.010404,0.000310,0.006480
0.601112,25,0.000000,0.000000,0.000000,0.010404,-0.002475,0.004511
0.623167,26,0.000000,0.000000,0.000000,0.008465,-0.006493,0.001508
0.646040,27,0.000000,0.000000,0.000000,0.008551,-0.012960,-0.004062
0.667927,28,0.000000,0.000000,0.000000,0.016528,-0.013539,-0.015670
0.690357,29,0.000000,0.000000,0.000000,0.013743,-0.009355,-0.013072
0.712667,30,0.000000,0.000000,0.000000,0.010680,-0.006082,-0.000866
0.734755,31,0.000000,0.000000,0.000000,0.009337,-0.005427,0.003395
0.757018,32,0.000000,0.000000,0.000000,0.012892,-0.004119,0.002984
0.779573,33,0.000000,0.000000,0.000000,0.018547,-0.001821,0.000443
0.801420,34,0.000000,0.000000,0.000000,0.022038,-0.000755,0.003806
0.823472,35,0.000000,0.000000,0.000000,0.017448,-0.005260,0.006180
0.846237,36,0.000000,0.000000,0.000000,0.015889,-0.007147,0.003563
0.868871,37,0.000000,0.000000,0.000000,0.018297,-0.011073,-0.007993
0.890315,38,0.000000,0.000000,0.000000,0.020377,-0.011408,-0.009277
0.913400,39,0.000000,0.000000,0.000000,0.021801,-0.006659,-0.015836
0.934563,40,0.000000,0.000000,0.000000,0.029587,0.000964,-0.024678
0.957372,41,0.000000,0.000000,0.000000,0.034258,0.017765,-0.016978
0.979808,42,0.000000,0.000000,0.000000,0.030130,0.031446,-0.008484
1.001369,43,0.000000,0.000000,0.000000,0.024937,0.031857,0.000987
1.023725,44,0.000000,0.000000,0.000000,0.024248,0.027596,0.007714
1.048177,45,0.000000,0.000000,0.000000,0.022720,0.016943,0.003883
1.067791,46,0.000000,0.000000,0.000000,0.020919,0.006945,-0.001276
1.090108,47,0.000000,0.000000,0.000000,0.020675,-0.002718,-0.003893
1.112874,48,0.000000,0.000000,0.000000,0.021984,-0.007968,-0.003539
1.134857,49,0.000000,0.000000,0.000000,0.017641,-0.009931,-0.006105
1.157036,50,0.000000,0.000000,0.000000,0.013628,-0.003951,-0.005125
1.179551,51,0.000000,0.000000,0.000000,0.010676,0.001376,-0.003927
1.201714,52,0.000000,0.000000,0.000000,0.009200,0.004328,0.000578
1.223648,53,0.000000,0.000000,0.000000,0.009038,0.006048,0.001643
1.246559,54,0.000000,0.000000,0.000000,0.013217,0.006702,0.001400
1.268740,55,0.000000,0.000000,0.000000,0.012396,0.004572,-0.002861
1.290784,56,0.000000,0.000000,0.000000,0.008494,0.004815,-0.007943
1.313142,57,0.000000,0.000000,0.000000,0.006282,0.003019,-0.010728
1.335236,58,0.000000,0.000000,0.000000,0.007757,0.001543,-0.010561
1.357852,59,0.000000,0.000000,0.000000,0.010265,0.003095,-0.006224
1.379740,60,0.000000,0.000000,0.000000,0.013328,0.002441,-0.008731
1.401745,61,0.000000,0.000000,0.000000,0.016002,0.003993,-0.004638
1.424367,62,0.000000,0.000000,0.000000,0.015540,0.003095,-0.007666
1.446688,63,0.000000,0.000000,0.000000,0.014115,0.003506,-0.004303
1.468813,64,0.000000,0.000000,0.000000,0.011741,0.003095,-0.003901
1.490838,65,0.000000,0.000000,0.000000,0.009528,0.001786,-0.008842
1.513194,66,0.000000,0.000000,0.000000,0.006825,0.003506,-0.006057
1.535500,67,0.000000,0.000000,0.000000,0.008411,0.002197,-0.010728
1.557950,68,0.000000,0.000000,0.000000,0.008411,0.000553,-0.013732
1.580029,69,0.000000,0.000000,0.000000,0.002101,0.000888,-0.009663
1.602464,70,0.000000,0.000000,0.000000,-0.002242,0.001786,-0.013513
1.624896,71,0.000000,0.000000,0.000000,-0.004044,0.002851,-0.022279
1.646697,72,0.000000,0.000000,0.000000,-0.002109,0.005879,-0.009774
1.669666,73,0.000000,0.000000,0.000000,0.001463,0.005803,0.003171
1.796495,74,0.000000,0.000000,0.000000,-0.007436,-0.001655,-0.004447
1.854933,75,0.000000,0.000000,0.000000,0.002528,-0.000757,0.010578
1.878419,76,0.000000,0.000000,0.000000,0.001086,-0.001000,-0.001794
1.900111,77,0.000000,0.000000,0.000000,0.001548,0.001617,0.001158
1.919574,78,0.000000,0.000000,0.000000,-0.000500,-0.000513,0.006728
1.942618,79,0.000000,0.000000,0.000000,0.004004,-0.000179,0.007961
1.965024,80,0.000000,0.000000,0.000000,0.011461,-0.000346,0.009432
1.987537,81,0.000000,0.000000,0.000000,0.014413,-0.003055,0.008483
2.010328,82,0.000000,0.000000,0.000000,0.016051,-0.005429,0.004390
2.033013,83,0.000000,0.000000,0.000000,0.017609,-0.005429,0.006840
2.055595,84,0.000000,0.000000,0.000000,0.015345,-0.003953,0.001027
2.078021,85,0.000000,0.000000,0.000000,0.010639,0.000064,0.003041
2.100453,86,0.000000,0.000000,0.000000,0.006250,0.004569,0.001403
2.122835,87,0.000000,0.000000,0.000000,0.006905,0.009484,0.001236
2.145390,88,0.000000,0.000000,0.000000,0.009330,0.010960,0.005497
2.167573,89,0.000000,0.000000,0.000000,0.009330,0.010960,0.009925
2.189892,90,0.000000,0.000000,0.000000,0.009086,0.005390,0.007140
2.212462,91,0.000000,0.000000,0.000000,0.010152,0.000551,0.008616
2.234533,92,0.000000,0.000000,0.000000,0.012693,-0.006252,0.007661
2.256895,93,0.000000,0.000000,0.000000,0.012526,-0.012476,0.004465
2.279171,94,0.000000,0.000000,0.000000,0.006301,-0.012720,0.005043
2.301834,95,0.000000,0.000000,0.000000,0.004415,-0.009692,0.006561
2.323536,96,0.000000,0.000000,0.000000,0.004774,-0.005431,0.001646
2.346007,97,0.000000,0.000000,0.000000,0.004987,0.002193,0.000748
2.367782,98,0.000000,0.000000,0.000000,0.004659,0.007763,0.002878
2.390158,99,0.000000,0.000000,0.000000,0.003760,0.009072,0.004923
2.412598,100,0.000000,0.000000,0.000000,-0.001566,0.007519,0.006618
2.434572,101,0.000000,0.000000,0.000000,-0.006927,0.004323,0.015627
2.456921,102,0.000000,0.000000,0.000000,-0.012086,-0.005021,0.010468
2.479185,103,0.000000,0.000000,0.000000,-0.017083,-0.011656,0.007029
2.501230,104,0.000000,0.000000,0.000000,-0.020005,-0.016739,0.005462
2.523451,105,0.000000,0.000000,0.000000,-0.014240,-0.017150,-0.006709
2.546004,106,0.000000,0.000000,0.000000,-0.007194,-0.011823,-0.009661
2.568148,107,0.000000,0.000000,0.000000,-0.011155,0.000305,0.001946
2.590208,108,0.000000,0.000000,0.000000,-0.018235,0.007762,0.013630
2.612739,109,0.000000,0.000000,0.000000,-0.017414,0.010957,0.012321
2.634635,110,0.000000,0.000000,0.000000,-0.017414,0.010957,0.012732
2.656900,111,0.000000,0.000000,0.000000,-0.021020,0.004809,0.011667
2.679148,112,0.000000,0.000000,0.000000,-0.023151,-0.003546,0.008060
2.701719,113,0.000000,0.000000,0.000000,-0.025282,-0.007320,0.008304
2.723468,114,0.000000,0.000000,0.000000,-0.019921,-0.013712,0.002844
2.745861,115,0.000000,0.000000,0.000000,-0.013453,-0.015675,-0.000022
2.768265,116,0.000000,0.000000,0.000000,-0.016239,-0.015021,0.001292
2.790316,117,0.000000,0.000000,0.000000,-0.018092,-0.011247,-0.007397
2.812755,118,0.000000,0.000000,0.000000,-0.015602,-0.003547,-0.012724
2.834814,119,0.000000,0.000000,0.000000,-0.010225,0.004154,-0.008051
2.856972,120,0.000000,0.000000,0.000000,-0.001870,0.009480,-0.001416
2.879299,121,0.000000,0.000000,0.000000,0.002281,0.012432,0.002601
2.901536,122,0.000000,0.000000,0.000000,0.004168,0.011777,0.002357
2.923674,123,0.000000,0.000000,0.000000,0.005343,0.008902,-0.002448
2.946313,124,0.000000,0.000000,0.000000,0.005586,0.000713,-0.000074
2.968201,125,0.000000,0.000000,0.000000,0.003756,-0.002482,0.002635
2.990343,126,0.000000,0.000000,0.000000,0.005424,-0.004202,0.001235
3.012738,127,0.000000,0.000000,0.000000,0.009737,-0.003715,0.003156
3.035326,128,0.000000,0.000000,0.000000,0.011045,0.000713,0.004516
3.057248,129,0.000000,0.000000,0.000000,0.008260,0.001778,0.003944
3.079465,130,0.000000,0.000000,0.000000,0.006707,0.003498,0.006729
3.101650,131,0.000000,0.000000,0.000000,0.005886,0.002432,0.010168
3.123658,132,0.000000,0.000000,0.000000,0.002742,0.001123,0.010092
3.146174,133,0.000000,0.000000,0.000000,0.002690,-0.002073,0.007307
3.168131,134,0.000000,0.000000,0.000000,0.004410,-0.003305,0.003944
3.190452,135,0.000000,0.000000,0.000000,0.002279,-0.003138,0.005420
3.213037,136,0.000000,0.000000,0.000000,0.004410,-0.001829,0.002879
3.234941,137,0.000000,0.000000,0.000000,0.005064,-0.001008,0.001814
3.257357,138,0.000000,0.000000,0.000000,0.002882,0.002021,0.000582
3.279578,139,0.000000,0.000000,0.000000,-0.001982,0.003907,0.000471
3.302229,140,0.000000,0.000000,0.000000,-0.005589,0.008001,0.003012
3.323984,141,0.000000,0.000000,0.000000,-0.005507,0.007347,0.008004
3.346108,142,0.000000,0.000000,0.000000,-0.005750,0.005216,0.009648
3.368645,143,0.000000,0.000000,0.000000,-0.005781,0.002187,0.010226
3.390577,144,0.000000,0.000000,0.000000,-0.005832,-0.001586,0.007518
3.412946,145,0.000000,0.000000,0.000000,-0.008784,-0.006746,0.002359
3.435169,146,0.000000,0.000000,0.000000,-0.007390,-0.007811,-0.001381
3.457813,147,0.000000,0.000000,0.000000,0.002013,-0.004205,-0.011379
3.479642,148,0.000000,0.000000,0.000000,0.007391,0.002187,-0.007605
3.502044,149,0.000000,0.000000,0.000000,0.003345,0.013493,0.005798
3.523861,150,0.000000,0.000000,0.000000,0.000038,0.019307,0.016532
3.546501,151,0.000000,0.000000,0.000000,-0.006354,0.012261,0.018008
3.568576,152,0.000000,0.000000,0.000000,-0.009306,0.004392,0.017516
3.590523,153,0.000000,0.000000,0.000000,-0.010456,-0.006748,0.021199
3.613087,154,0.000000,0.000000,0.000000,-0.011958,-0.017324,0.025819
3.635676,155,0.000000,0.000000,0.000000,-0.023010,-0.029286,0.073159
3.657416,156,0.000000,0.000000,0.000000,-0.059322,-0.075914,0.180037
3.679801,157,0.000000,0.000000,0.000000,-0.051699,-0.164685,0.269641
3.702064,158,0.000000,0.000000,0.000000,0.023014,-0.229324,0.347731
3.723862,159,0.000000,0.000000,0.000000,0.109805,-0.267129,0.419810
3.746410,160,0.000000,0.000000,0.000000,0.184604,-0.288789,0.466293
3.768773,161,0.000000,0.000000,0.000000,0.246656,-0.295181,0.496521
3.790528,162,0.000000,0.000000,0.000000,0.304013,-0.289721,0.504176
3.813094,163,0.000000,0.000000,0.000000,0.366875,-0.261857,0.487722
3.835170,164,0.000000,0.000000,0.000000,0.429215,-0.212202,0.473307
3.857387,165,0.000000,0.000000,0.000000,0.494341,-0.175161,0.466440
3.879713,166,0.000000,0.000000,0.000000,0.594619,-0.162823,0.463454
3.902224,167,0.000000,0.000000,0.000000,0.785649,-0.192175,0.379247
3.923938,168,0.000000,0.000000,0.000000,1.041125,-0.262082,0.233661
3.946494,169,0.000000,0.000000,0.000000,1.280900,-0.311005,0.157939
3.968655,170,0.000000,0.000000,0.000000,1.451430,-0.310252,0.156746
3.990819,171,0.000000,0.000000,0.000000,1.533136,-0.273044,0.209325
4.013329,172,0.000000,0.000000,0.000000,1.575297,-0.217163,0.267662
4.035323,173,0.000000,0.000000,0.000000,1.638958,-0.153323,0.310225
4.057653,174,0.000000,0.000000,0.000000,1.725841,-0.079576,0.337412
4.079655,175,0.000000,0.000000,0.000000,1.823928,0.000076,0.356541
4.102748,176,0.000000,0.000000,0.000000,1.915142,0.098359,0.341361
4.124016,177,0.000000,0.000000,0.000000,1.988090,0.185300,0.289551
4.146589,178,0.000000,0.000000,0.000000,2.019986,0.265029,0.233713
4.168989,179,0.000000,0.000000,0.000000,1.943404,0.319093,0.173160
4.190879,180,0.000000,0.000000,0.000000,1.754993,0.309734,0.085494
4.213382,181,0.000000,0.000000,0.000000,1.545217,0.213521,0.002006
4.235456,182,0.000000,0.000000,0.000000,1.357511,0.107442,-0.093180
4.257541,183,0.000000,0.000000,0.000000,1.167878,0.074380,-0.103025
4.279916,184,0.000000,0.000000,0.000000,0.880123,0.095120,-0.063835
4.302730,185,0.000000,0.000000,0.000000,0.575032,0.140564,-0.052884
4.324344,186,0.000000,0.000000,0.000000,0.405603,0.179714,-0.065032
4.346658,187,0.000000,0.000000,0.000000,0.380859,0.200612,-0.065866
4.368963,188,0.000000,0.000000,0.000000,0.422295,0.201345,-0.049634
4.391038,189,0.000000,0.000000,0.000000,0.446057,0.202337,-0.042034
4.413466,190,0.000000,0.000000,0.000000,0.456350,0.205778,-0.033756
4.435480,191,0.000000,0.000000,0.000000,0.406250,0.214749,0.049268
4.457649,192,0.000000,0.000000,0.000000,0.227292,0.251358,0.153380
4.480544,193,0.000000,0.000000,0.000000,0.023002,0.290265,0.158017
4.502592,194,0.000000,0.000000,0.000000,-0.076994,0.295128,0.070312
4.524182,195,0.000000,0.000000,0.000000,-0.106614,0.268498,0.015168
4.546527,196,0.000000,0.000000,0.000000,-0.113416,0.226709,0.018802
4.569368,197,0.000000,0.000000,0.000000,-0.094338,0.183824,0.000403
4.590800,198,0.000000,0.000000,0.000000,-0.049850,0.144302,-0.044964
4.613447,199,0.000000,0.000000,0.000000,-0.027257,0.115508,-0.064376
4.635500,200,0.000000,0.000000,0.000000,-0.042909,0.091422,-0.061348
4.657721,201,0.000000,0.000000,0.000000,-0.062141,0.069465,-0.049983
4.680620,202,0.000000,0.000000,0.000000,-0.052796,0.053079,-0.045745
4.702092,203,0.000000,0.000000,0.000000,-0.056545,0.054559,-0.022830
4.724189,204,0.000000,0.000000,0.000000,-0.094360,0.112775,0.011646
4.746797,205,0.000000,0.000000,0.000000,-0.149520,0.295452,0.033836
4.769299,206,0.000000,0.000000,0.000000,-0.193159,0.650679,0.011009
4.790770,207,0.000000,0.000000,0.000000,-0.193545,1.086365,-0.060763
4.813796,208,0.000000,0.000000,0.000000,-0.127463,1.457526,-0.142499
4.836048,209,0.000000,0.000000,0.000000,-0.056788,1.588947,-0.175363
4.857693,210,0.000000,0.000000,0.000000,-0.027671,1.542977,-0.179661
4.880632,211,0.000000,0.000000,0.000000,-0.046677,1.427954,-0.186636
4.902233,212,0.000000,0.000000,0.000000,-0.063720,1.336479,-0.187278
4.923679,213,0.000000,0.000000,0.000000,-0.076669,1.257897,-0.184481
4.946612,214,0.000000,0.000000,0.000000,-0.100216,1.159785,-0.181516
4.968904,215,0.000000,0.000000,0.000000,-0.114041,1.029272,-0.165304
4.990963,216,0.000000,0.000000,0.000000,-0.149639,0.904360,-0.154639
5.013314,217,0.000000,0.000000,0.000000,-0.178378,0.799855,-0.136929
5.030939,218,0.000000,0.000000,0.000000,-0.188219,0.748313,-0.102973
5.057678,219,0.000000,0.000000,0.000000,-0.201398,0.612886,-0.054634
5.080088,220,0.000000,0.000000,0.000000,-0.193888,0.540920,-0.050326
5.102409,221,0.000000,0.000000,0.000000,-0.194117,0.488803,0.005702
5.124468,222,0.000000,0.000000,0.000000,-0.195012,0.427155,0.061844
5.146764,223,0.000000,0.000000,0.000000,-0.208426,0.372585,0.085476
5.169101,224,0.000000,0.000000,0.000000,-0.215349,0.312246,0.126998
5.191118,225,0.000000,0.000000,0.000000,-0.186731,0.218061,0.151791
5.213587,226,0.000000,0.000000,0.000000,-0.149208,0.107952,0.114425
5.235811,227,0.000000,0.000000,0.000000,-0.124944,-0.003296,0.080174
5.258083,228,0.000000,0.000000,0.000000,-0.118459,-0.096417,0.055823
5.280274,229,0.000000,0.000000,0.000000,-0.113104,-0.174289,0.045459
5.302757,230,0.000000,0.000000,0.000000,-0.103482,-0.211437,0.036294
5.324726,231,0.000000,0.000000,0.000000,-0.073798,-0.203156,-0.028762
5.346940,232,0.000000,0.000000,0.000000,-0.038452,-0.163405,-0.111002
5.369336,233,0.000000,0.000000,0.000000,-0.020619,-0.109651,-0.184019
5.391456,234,0.000000,0.000000,0.000000,-0.008161,-0.097770,-0.187459
5.413719,235,0.000000,0.000000,0.000000,-0.010481,-0.116860,-0.126815
5.435870,236,0.000000,0.000000,0.000000,-0.060646,-0.138950,-0.068649
5.458744,237,0.000000,0.000000,0.000000,-0.115854,-0.141733,-0.060736
5.480253,238,0.000000,0.000000,0.000000,-0.120553,-0.150663,-0.045746
5.503283,239,0.000000,0.000000,0.000000,-0.098847,-0.170824,-0.007252
5.524644,240,0.000000,0.000000,0.000000,-0.059316,-0.183138,-0.007409
5.547045,241,0.000000,0.000000,0.000000,-0.012159,-0.174613,-0.050552
5.569387,242,0.000000,0.000000,0.000000,0.015527,-0.138879,-0.097968
5.591228,243,0.000000,0.000000,0.000000,0.030974,-0.085780,-0.134298
5.613870,244,0.000000,0.000000,0.000000,0.026691,-0.046664,-0.155337
5.636098,245,0.000000,0.000000,0.000000,-0.015763,-0.025490,-0.138039
5.658437,246,0.000000,0.000000,0.000000,-0.045456,-0.018442,-0.133345
5.680403,247,0.000000,0.000000,0.000000,-0.031114,-0.018441,-0.122993
5.702824,248,0.000000,0.000000,0.000000,-0.003742,-0.019498,-0.124401
5.724691,249,0.000000,0.000000,0.000000,0.012400,-0.023220,-0.125357
5.747082,250,0.000000,0.000000,0.000000,0.023957,-0.030751,-0.121229
5.769543,251,0.000000,0.000000,0.000000,0.028197,-0.034767,-0.141603
5.791571,252,0.000000,0.000000,0.000000,0.026101,-0.027719,-0.148892
5.814127,253,0.000000,0.000000,0.000000,0.033791,-0.030502,-0.119065
5.836099,254,0.000000,0.000000,0.000000,0.018590,-0.045337,-0.072882
5.858332,255,0.000000,0.000000,0.000000,-0.004638,-0.076472,-0.041411
5.880451,256,0.000000,0.000000,0.000000,0.012078,-0.097775,-0.037096
5.902907,257,0.000000,0.000000,0.000000,0.052542,-0.107638,-0.040667
5.924900,258,0.000000,0.000000,0.000000,0.056982,-0.109189,-0.032982
5.947428,259,0.000000,0.000000,0.000000,0.028980,-0.112139,-0.006662
5.969532,260,0.000000,0.000000,0.000000,0.007421,-0.123855,0.019697
5.991490,261,0.000000,0.000000,0.000000,0.009053,-0.133441,0.053618
6.014116,262,0.000000,0.000000,0.000000,0.009730,-0.137290,0.071073
6.036889,263,0.000000,0.000000,0.000000,0.009153,-0.131385,0.075578
6.058422,264,0.000000,0.000000,0.000000,0.017021,-0.105218,0.073337
6.080749,265,0.000000,0.000000,0.000000,0.016141,-0.093499,0.088628
6.103492,266,0.000000,0.000000,0.000000,-0.004017,-0.080471,0.088484
6.125024,267,0.000000,0.000000,0.000000,-0.031522,-0.058719,0.081016
6.147230,268,0.000000,0.000000,0.000000,-0.040369,-0.039132,0.077132
6.169607,269,0.000000,0.000000,0.000000,-0.025045,-0.025860,0.079674
6.191750,270,0.000000,0.000000,0.000000,-0.022076,-0.017413,0.092624
6.214180,271,0.000000,0.000000,0.000000,-0.054363,-0.007581,0.091548
6.236393,272,0.000000,0.000000,0.000000,-0.089761,-0.004029,0.085800
6.258708,273,0.000000,0.000000,0.000000,-0.085535,-0.014923,0.093946
6.280908,274,0.000000,0.000000,0.000000,-0.062609,-0.039046,0.083793
6.303098,275,0.000000,0.000000,0.000000,-0.058471,-0.058873,0.040018
6.325127,276,0.000000,0.000000,0.000000,-0.079933,-0.064031,0.004831
6.347536,277,0.000000,0.000000,0.000000,-0.099897,-0.063375,-0.015630
6.370193,278,0.000000,0.000000,0.000000,-0.096147,-0.067224,-0.031910
6.391937,279,0.000000,0.000000,0.000000,-0.079671,-0.074025,-0.058397
6.414335,280,0.000000,0.000000,0.000000,-0.079805,-0.067800,-0.070526
6.436546,281,0.000000,0.000000,0.000000,-0.096666,-0.054194,-0.057963
6.458811,282,0.000000,0.000000,0.000000,-0.096696,-0.051651,-0.039066
6.481095,283,0.000000,0.000000,0.000000,-0.063019,-0.059107,-0.036681
6.503523,284,0.000000,0.000000,0.000000,-0.042913,-0.059760,-0.040965
6.525664,285,0.000000,0.000000,0.000000,-0.076626,-0.060992,-0.040566
6.547637,286,0.000000,0.000000,0.000000,-0.131176,-0.076727,-0.031233
6.570031,287,0.000000,0.000000,0.000000,-0.138912,-0.096387,-0.020414
6.592028,288,0.000000,0.000000,0.000000,-0.109873,-0.099339,-0.019012
6.614486,289,0.000000,0.000000,0.000000,-0.088847,-0.089994,-0.012015
6.636691,290,0.000000,0.000000,0.000000,-0.079261,-0.082049,-0.010295
6.659053,291,0.000000,0.000000,0.000000,-0.071151,-0.077864,-0.009154
6.681296,292,0.000000,0.000000,0.000000,-0.083314,-0.066556,-0.000525
6.703504,293,0.000000,0.000000,0.000000,-0.114562,-0.057622,0.011540
6.725557,294,0.000000,0.000000,0.000000,-0.133831,-0.043496,0.031524
6.747890,295,0.000000,0.000000,0.000000,-0.121900,-0.031778,0.051682
6.770394,296,0.000000,0.000000,0.000000,-0.102460,-0.020060,0.069328
6.792251,297,0.000000,0.000000,0.000000,-0.095247,-0.016209,0.077925
6.814595,298,0.000000,0.000000,0.000000,-0.098067,-0.013425,0.080632
6.836905,299,0.000000,0.000000,0.000000,-0.095249,-0.011705,0.078743
6.859071,300,0.000000,0.000000,0.000000,-0.068619,-0.011705,0.080439
6.881315,301,0.000000,0.000000,0.000000,-0.044530,-0.021571,0.081763
6.903485,302,0.000000,0.000000,0.000000,-0.053464,-0.043698,0.081679
6.925696,303,0.000000,0.000000,0.000000,-0.078510,-0.077620,0.071025
6.948105,304,0.000000,0.000000,0.000000,-0.099357,-0.127966,-0.001720
6.970388,305,0.000000,0.000000,0.000000,-0.189540,-0.271733,-0.143098
6.992490,306,0.000000,0.000000,0.000000,-0.304290,-0.580186,-0.324406
7.014835,307,0.000000,0.000000,0.000000,-0.324533,-1.032999,-0.385997
7.037971,308,0.000000,0.000000,0.000000,-0.279063,-1.231063,-0.348424
7.058946,309,0.000000,0.000000,0.000000,-0.117544,-1.533983,-0.180086
7.081574,310,0.000000,0.000000,0.000000,-0.000928,-1.550317,-0.103685
7.103686,311,0.000000,0.000000,0.000000,0.108615,-1.520114,-0.048031
7.125711,312,0.000000,0.000000,0.000000,0.132477,-1.438954,0.053624
7.148109,313,0.000000,0.000000,0.000000,0.155391,-1.305242,0.154556
7.170294,314,0.000000,0.000000,0.000000,0.252577,-1.151567,0.173638
7.192640,315,0.000000,0.000000,0.000000,0.411925,-0.985390,0.130494
7.214978,316,0.000000,0.000000,0.000000,0.537366,-0.829096,0.095812
7.237321,317,0.000000,0.000000,0.000000,0.593557,-0.701811,0.081355
7.259486,318,0.000000,0.000000,0.000000,0.560980,-0.586897,0.034726
7.281783,319,0.000000,0.000000,0.000000,0.539470,-0.481704,-0.018395
7.304033,320,0.000000,0.000000,0.000000,0.618305,-0.376656,-0.081432
7.326101,321,0.000000,0.000000,0.000000,0.705806,-0.270787,-0.124828
7.348458,322,0.000000,0.000000,0.000000,0.656654,-0.158546,-0.121008
7.370794,323,0.000000,0.000000,0.000000,0.474153,-0.023792,-0.119772
7.392911,324,0.000000,0.000000,0.000000,0.319619,0.096349,-0.095627
7.415327,325,0.000000,0.000000,0.000000,0.268370,0.191267,-0.060839
7.437447,326,0.000000,0.000000,0.000000,0.261577,0.247591,-0.009090
7.459647,327,0.000000,0.000000,0.000000,0.183656,0.262447,0.038381
7.482004,328,0.000000,0.000000,0.000000,0.121533,0.245923,0.050630
7.504077,329,0.000000,0.000000,0.000000,0.128127,0.220656,0.017415
7.526208,330,0.000000,0.000000,0.000000,0.118261,0.186233,0.020231
7.548695,331,0.000000,0.000000,0.000000,0.028888,0.131006,-0.003821
7.570992,332,0.000000,0.000000,0.000000,-0.029235,0.067577,-0.084869
7.593198,333,0.000000,0.000000,0.000000,-0.030543,0.009943,-0.112146
7.615321,334,0.000000,0.000000,0.000000,-0.106005,-0.063561,-0.073943
7.637823,335,0.000000,0.000000,0.000000,-0.175543,-0.114694,-0.093132
7.660032,336,0.000000,0.000000,0.000000,-0.154582,-0.113219,-0.110689
7.683029,337,0.000000,0.000000,0.000000,-0.135403,-0.096494,-0.145979
7.704437,338,0.000000,0.000000,0.000000,-0.178825,-0.076179,-0.182079
7.726422,339,0.000000,0.000000,0.000000,-0.207919,-0.038619,-0.156957
7.748836,340,0.000000,0.000000,0.000000,-0.183731,-0.006905,-0.134102
7.771041,341,0.000000,0.000000,0.000000,-0.176507,0.019181,-0.159707
7.793409,342,0.000000,0.000000,0.000000,-0.155191,0.047288,-0.192288
7.815632,343,0.000000,0.000000,0.000000,-0.080225,0.068969,-0.152100
7.837918,344,0.000000,0.000000,0.000000,0.006228,0.067213,-0.132059
7.860204,345,0.000000,0.000000,0.000000,0.054795,0.059269,-0.146936
7.883523,346,0.000000,0.000000,0.000000,0.083215,0.073192,-0.188507
7.904904,347,0.000000,0.000000,0.000000,0.124422,0.105727,-0.237368
7.926657,348,0.000000,0.000000,0.000000,0.172613,0.146617,-0.260251
7.949034,349,0.000000,0.000000,0.000000,0.184624,0.170950,-0.259543
7.971435,350,0.000000,0.000000,0.000000,0.132438,0.168332,-0.241564
7.993583,351,0.000000,0.000000,0.000000,0.021261,0.162536,-0.234028
8.015872,352,0.000000,0.000000,0.000000,-0.105638,0.155634,-0.186153
8.040488,353,0.000000,0.000000,0.000000,-0.153699,0.145057,-0.151174
8.060604,354,0.000000,0.000000,0.000000,-0.153076,0.095533,-0.104086
8.083347,355,0.000000,0.000000,0.000000,-0.081405,0.077069,-0.170001
8.105031,356,0.000000,0.000000,0.000000,-0.051913,0.076657,-0.249401
8.126917,357,0.000000,0.000000,0.000000,-0.087224,0.080506,-0.289937
8.149336,358,0.000000,0.000000,0.000000,-0.137946,0.084390,-0.292115
8.171301,359,0.000000,0.000000,0.000000,-0.115832,0.099302,-0.260236
8.193643,360,0.000000,0.000000,0.000000,-0.057198,0.108778,-0.212591
8.216019,361,0.000000,0.000000,0.000000,-0.013483,0.111563,-0.165411
8.238664,362,0.000000,0.000000,0.000000,0.006138,0.104759,-0.114824
8.260689,363,0.000000,0.000000,0.000000,0.033057,0.092218,-0.065488
8.283501,364,0.000000,0.000000,0.000000,0.063938,0.075718,-0.028066
8.305261,365,0.000000,0.000000,0.000000,0.093874,0.064409,-0.030843
8.326760,366,0.000000,0.000000,0.000000,0.122998,0.067083,-0.043484
8.349098,367,0.000000,0.000000,0.000000,0.136188,0.074372,-0.030759
8.371875,368,0.000000,0.000000,0.000000,0.110771,0.080310,-0.005526
8.393928,369,0.000000,0.000000,0.000000,0.083340,0.081451,0.004980
8.416023,370,0.000000,0.000000,0.000000,0.054803,0.080628,-0.013199
8.439026,371,0.000000,0.000000,0.000000,0.029564,0.087297,-0.024074
8.460781,372,0.000000,0.000000,0.000000,0.012242,0.085577,-0.015009
8.483358,373,0.000000,0.000000,0.000000,0.010521,0.073692,-0.013534
8.505020,374,0.000000,0.000000,0.000000,0.015679,0.067711,-0.011051
8.527236,375,0.000000,0.000000,0.000000,0.020946,0.055715,0.003242
8.549479,376,0.000000,0.000000,0.000000,0.008244,0.044408,0.004516
8.571656,377,0.000000,0.000000,0.000000,-0.016912,0.033268,-0.000100
8.594166,378,0.000000,0.000000,0.000000,-0.035699,0.028462,-0.018655
8.616055,379,0.000000,0.000000,0.000000,-0.041125,0.031247,-0.045121
8.638709,380,0.000000,0.000000,0.000000,-0.033558,0.043786,-0.053887
8.660869,381,0.000000,0.000000,0.000000,-0.019433,0.067222,-0.058970
8.682927,382,0.000000,0.000000,0.000000,0.006267,0.091891,-0.046675
8.705672,383,0.000000,0.000000,0.000000,0.030611,0.110487,0.010356
8.727007,384,0.000000,0.000000,0.000000,0.057798,0.113926,0.073676
8.749458,385,0.000000,0.000000,0.000000,0.070980,0.106469,0.109762
8.771700,386,0.000000,0.000000,0.000000,0.049363,0.085575,0.130135
8.794171,387,0.000000,0.000000,0.000000,0.021544,0.049027,0.163534
8.816084,388,0.000000,0.000000,0.000000,0.012112,-0.001400,0.196835
8.838588,389,0.000000,0.000000,0.000000,0.028890,-0.055595,0.185842
8.860899,390,0.000000,0.000000,0.000000,0.052407,-0.087663,0.104922
8.883538,391,0.000000,0.000000,0.000000,0.040514,-0.092989,0.039698
8.905633,392,0.000000,0.000000,0.000000,0.012817,-0.099513,0.034395
8.927006,393,0.000000,0.000000,0.000000,-0.005200,-0.099757,0.008383
8.949523,394,0.000000,0.000000,0.000000,0.013250,-0.083777,-0.028866
8.971744,395,0.000000,0.000000,0.000000,0.039032,-0.056658,-0.005725
8.994245,396,0.000000,0.000000,0.000000,0.064176,-0.038138,0.028115
9.016144,397,0.000000,0.000000,0.000000,0.074366,-0.025598,0.024098
9.042406,398,0.000000,0.000000,0.000000,0.072321,-0.015767,0.018605
9.060910,399,0.000000,0.000000,0.000000,0.034326,0.023515,-0.002278
9.083623,400,0.000000,0.000000,0.000000,0.000781,0.045232,0.000831
9.105429,401,0.000000,0.000000,0.000000,-0.015198,0.054276,0.006667
9.127227,402,0.000000,0.000000,0.000000,-0.024079,0.052312,0.008200
9.149529,403,0.000000,0.000000,0.000000,-0.036613,0.040839,0.008932
9.171828,404,0.000000,0.000000,0.000000,-0.053414,0.017403,0.011474
9.194109,405,0.000000,0.000000,0.000000,-0.065375,-0.011392,0.002541
9.216185,406,0.000000,0.000000,0.000000,-0.054578,-0.027858,-0.016322
9.238644,407,0.000000,0.000000,0.000000,-0.029034,-0.038754,-0.030158
9.260922,408,0.000000,0.000000,0.000000,-0.011746,-0.037774,-0.025954
9.283688,409,0.000000,0.000000,0.000000,0.001748,-0.023597,-0.016442
9.305218,410,0.000000,0.000000,0.000000,0.011302,-0.010813,-0.006367
9.327220,411,0.000000,0.000000,0.000000,0.011353,0.001071,0.001963
9.349601,412,0.000000,0.000000,0.000000,0.015401,0.013931,0.004906
9.371951,413,0.000000,0.000000,0.000000,0.030199,0.021312,0.008304
9.394139,414,0.000000,0.000000,0.000000,0.035282,0.023519,0.008304
9.416526,415,0.000000,0.000000,0.000000,0.033807,0.019425,0.012809
9.438664,416,0.000000,0.000000,0.000000,0.021602,0.011801,0.011334
9.461013,417,0.000000,0.000000,0.000000,0.003980,0.005166,0.010813
9.483642,418,0.000000,0.000000,0.000000,-0.000802,0.000083,0.013847
9.505393,419,0.000000,0.000000,0.000000,0.006361,-0.002945,0.012533
9.527319,420,0.000000,0.000000,0.000000,0.009719,-0.003356,0.005355
9.549813,421,0.000000,0.000000,0.000000,-0.002276,-0.003112,0.014421
9.572087,422,0.000000,0.000000,0.000000,-0.014219,-0.003279,0.030013
9.594313,423,0.000000,0.000000,0.000000,-0.005111,-0.011877,0.011303
9.616515,424,0.000000,0.000000,0.000000,0.008719,-0.008027,-0.019799
9.638889,425,0.000000,0.000000,0.000000,0.009045,-0.001391,-0.009556
9.661009,426,0.000000,0.000000,0.000000,-0.003471,0.005579,0.002186
9.683848,427,0.000000,0.000000,0.000000,-0.008108,0.011560,-0.002897
9.705847,428,0.000000,0.000000,0.000000,0.000003,0.011149,-0.006746
9.727560,429,0.000000,0.000000,0.000000,-0.001472,0.008365,-0.004859
9.749757,430,0.000000,0.000000,0.000000,-0.009583,0.006478,-0.004371
9.772073,431,0.000000,0.000000,0.000000,-0.016663,0.001730,0.001585
9.794674,432,0.000000,0.000000,0.000000,-0.020490,-0.008268,0.020675
9.816536,433,0.000000,0.000000,0.000000,-0.021097,-0.028021,0.039960
9.838806,434,0.000000,0.000000,0.000000,-0.025960,-0.134336,0.046919
9.861354,435,0.000000,0.000000,0.000000,-0.017316,-0.495466,0.002759
9.883927,436,0.000000,0.000000,0.000000,0.001881,-1.047740,-0.047973
9.905813,437,0.000000,0.000000,0.000000,0.012800,-1.534160,0.061647
9.927546,438,0.000000,0.000000,0.000000,0.017889,-1.697688,0.199034
9.949784,439,0.000000,0.000000,0.000000,0.017427,-1.615837,0.274564
9.972024,440,0.000000,0.000000,0.000000,0.021999,-1.456837,0.254679
9.994558,441,0.000000,0.000000,0.000000,0.068859,-1.296081,0.206621
10.016633,442,0.000000,0.000000,0.000000,0.107486,-1.107720,0.205616
10.041149,443,0.000000,0.000000,0.000000,0.109993,-1.001403,0.215133
10.061321,444,0.000000,0.000000,0.000000,0.086656,-0.642665,0.225010
10.083905,445,0.000000,0.000000,0.000000,0.064697,-0.424890,0.224555
10.105635,446,0.000000,0.000000,0.000000,0.040525,-0.258697,0.212321
10.127590,447,0.000000,0.000000,0.000000,0.006848,-0.097455,0.205182
10.149823,448,0.000000,0.000000,0.000000,-0.033284,0.055432,0.219379
10.172142,449,0.000000,0.000000,0.000000,-0.062867,0.171111,0.216428
10.194717,450,0.000000,0.000000,0.000000,-0.086651,0.236202,0.186119
10.216892,451,0.000000,0.000000,0.000000,-0.098061,0.270533,0.172041
10.239021,452,0.000000,0.000000,0.000000,-0.089998,0.287988,0.159593
10.261346,453,0.000000,0.000000,0.000000,-0.088823,0.284791,0.146318
10.283987,454,0.000000,0.000000,0.000000,-0.084610,0.261842,0.132696
10.306338,455,0.000000,0.000000,0.000000,-0.063490,0.225923,0.121015
10.327621,456,0.000000,0.000000,0.000000,-0.055102,0.193142,0.114442
10.349815,457,0.000000,0.000000,0.000000,-0.052861,0.175854,0.104144
10.372077,458,0.000000,0.000000,0.000000,-0.050489,0.189869,0.100101
10.394813,459,0.000000,0.000000,0.000000,-0.065866,0.238980,0.094510
10.416798,460,0.000000,0.000000,0.000000,-0.091857,0.279870,0.064241
10.438946,461,0.000000,0.000000,0.000000,-0.092425,0.292895,0.026789
10.461600,462,0.000000,0.000000,0.000000,-0.097764,0.315131,-0.025687
10.484081,463,0.000000,0.000000,0.000000,-0.125995,0.375474,-0.073503
10.505851,464,0.000000,0.000000,0.000000,-0.144615,0.483265,-0.095023
10.527662,465,0.000000,0.000000,0.000000,-0.145948,0.624267,-0.119953
10.549939,466,0.000000,0.000000,0.000000,-0.136484,0.803619,-0.166658
10.572157,467,0.000000,0.000000,0.000000,-0.113993,1.005506,-0.199520
10.594743,468,0.000000,0.000000,0.000000,-0.086698,1.188542,-0.230355
10.616791,469,0.000000,0.000000,0.000000,-0.072479,1.292393,-0.267351
10.639294,470,0.000000,0.000000,0.000000,-0.061633,1.327378,-0.284808
10.661474,471,0.000000,0.000000,0.000000,-0.046888,1.324014,-0.276009
10.683976,472,0.000000,0.000000,0.000000,-0.040909,1.293532,-0.274556
10.706340,473,0.000000,0.000000,0.000000,-0.052618,1.235730,-0.311042
10.727900,474,0.000000,0.000000,0.000000,-0.062277,1.199811,-0.350557
10.750018,475,0.000000,0.000000,0.000000,-0.060888,1.200876,-0.347118
10.772282,476,0.000000,0.000000,0.000000,-0.057816,1.163835,-0.303820
10.794821,477,0.000000,0.000000,0.000000,-0.044501,1.054733,-0.256683
10.816974,478,0.000000,0.000000,0.000000,-0.011590,0.896495,-0.240971
10.839065,479,0.000000,0.000000,0.000000,0.016361,0.735166,-0.259925
10.861738,480,0.000000,0.000000,0.000000,0.035646,0.573344,-0.267644
10.884119,481,0.000000,0.000000,0.000000,0.054350,0.377769,-0.247996
10.905717,482,0.000000,0.000000,0.000000,0.066827,0.158071,-0.216490
10.927940,483,0.000000,0.000000,0.000000,0.071320,-0.067366,-0.186490
10.949842,484,0.000000,0.000000,0.000000,0.073148,-0.247785,-0.165672
10.972226,485,0.000000,0.000000,0.000000,0.056829,-0.382645,-0.130210
10.994685,486,0.000000,0.000000,0.000000,0.018978,-0.480567,-0.082540
11.016919,487,0.000000,0.000000,0.000000,-0.003758,-0.543194,-0.046890
11.040154,488,0.000000,0.000000,0.000000,-0.005101,-0.562536,-0.032028
11.061606,489,0.000000,0.000000,0.000000,-0.020218,-0.579658,0.003754
11.084743,490,0.000000,0.000000,0.000000,-0.042084,-0.565623,0.059000
11.106096,491,0.000000,0.000000,0.000000,-0.063712,-0.563736,0.103237
11.127913,492,0.000000,0.000000,0.000000,-0.099520,-0.561850,0.099294
11.150227,493,0.000000,0.000000,0.000000,-0.152649,-0.548956,0.100807
11.172557,494,0.000000,0.000000,0.000000,-0.200997,-0.521469,0.094351
11.194764,495,0.000000,0.000000,0.000000,-0.253339,-0.485140,0.100309
11.217017,496,0.000000,0.000000,0.000000,-0.317509,-0.462903,0.122992
11.239079,497,0.000000,0.000000,0.000000,-0.362586,-0.496915,0.146284
11.262375,498,0.000000,0.000000,0.000000,-0.414325,-0.581182,0.150379
11.283561,499,0.000000,0.000000,0.000000,-0.463137,-0.627399,0.161577
11.305889,500,0.000000,0.000000,0.000000,-0.504282,-0.673206,0.188425
11.328013,501,0.000000,0.000000,0.000000,-0.547315,-0.728599,0.217484
11.350033,502,0.000000,0.000000,0.000000,-0.562843,-0.761623,0.250264
11.372509,503,0.000000,0.000000,0.000000,-0.542579,-0.738263,0.277066
11.394766,504,0.000000,0.000000,0.000000,-0.547991,-0.676779,0.277676
11.417016,505,0.000000,0.000000,0.000000,-0.614969,-0.591113,0.277156
11.439210,506,0.000000,0.000000,0.000000,-0.689924,-0.498291,0.284060
11.461793,507,0.000000,0.000000,0.000000,-0.694295,-0.393131,0.291009
11.483653,508,0.000000,0.000000,0.000000,-0.649286,-0.290999,0.320694
11.506335,509,0.000000,0.000000,0.000000,-0.661702,-0.171789,0.367678
11.528278,510,0.000000,0.000000,0.000000,-0.695667,-0.051924,0.403789
11.550407,511,0.000000,0.000000,0.000000,-0.725615,0.044958,0.437260
11.572799,512,0.000000,0.000000,0.000000,-0.761056,0.102927,0.474113
11.595352,513,0.000000,0.000000,0.000000,-0.785510,0.148676,0.510423
11.617098,514,0.000000,0.000000,0.000000,-0.790048,0.171979,0.522687
11.639362,515,0.000000,0.000000,0.000000,-0.818421,0.186481,0.492197
11.662080,516,0.000000,0.000000,0.000000,-0.840357,0.202459,0.428661
11.683520,517,0.000000,0.000000,0.000000,-0.819891,0.208273,0.330470
11.706102,518,0.000000,0.000000,0.000000,-0.812346,0.202625,0.211230
11.728234,519,0.000000,0.000000,0.000000,-0.850511,0.205242,0.140948
11.750384,520,0.000000,0.000000,0.000000,-0.863659,0.204997,0.096209
11.772551,521,0.000000,0.000000,0.000000,-0.874168,0.193111,0.068105
11.795145,522,0.000000,0.000000,0.000000,-0.974237,0.209367,0.081602
11.817350,523,0.000000,0.000000,0.000000,-1.025968,0.238816,0.085466
11.839278,524,0.000000,0.000000,0.000000,-0.949901,0.247470,0.036809
11.861971,525,0.000000,0.000000,0.000000,-0.908680,0.239189,0.013664
11.883768,526,0.000000,0.000000,0.000000,-1.038516,0.246024,0.079599
11.907134,527,0.000000,0.000000,0.000000,-1.085094,0.242692,0.117520
11.928411,528,0.000000,0.000000,0.000000,-0.972531,0.225989,0.065057
11.950436,529,0.000000,0.000000,0.000000,-0.924564,0.219351,0.025522
11.972550,530,0.000000,0.000000,0.000000,-1.017110,0.238557,0.024702
11.995088,531,0.000000,0.000000,0.000000,-0.989479,0.251170,-0.002849
12.017228,532,0.000000,0.000000,0.000000,-0.884818,0.241436,-0.055422
12.042153,533,0.000000,0.000000,0.000000,-0.880915,0.232501,-0.068992
12.063102,534,0.000000,0.000000,0.000000,-1.030854,0.196556,-0.049792
12.083586,535,0.000000,0.000000,0.000000,-0.948192,0.164729,-0.051024
12.107264,536,0.000000,0.000000,0.000000,-0.831598,0.129293,-0.075435
12.128292,537,0.000000,0.000000,0.000000,-0.822150,0.103614,-0.095605
12.150405,538,0.000000,0.000000,0.000000,-0.801299,0.077224,-0.096415
12.172554,539,0.000000,0.000000,0.000000,-0.711051,0.045939,-0.096002
12.194991,540,0.000000,0.000000,0.000000,-0.640715,0.029847,-0.097864
12.217136,541,0.000000,0.000000,0.000000,-0.623311,0.015174,-0.100017
12.240154,542,0.000000,0.000000,0.000000,-0.603968,0.004106,-0.099023
12.262067,543,0.000000,0.000000,0.000000,-0.548852,0.038359,-0.078881
12.283619,544,0.000000,0.000000,0.000000,-0.463108,0.092575,-0.075754
12.306566,545,0.000000,0.000000,0.000000,-0.361391,0.140751,-0.116544
12.328216,546,0.000000,0.000000,0.000000,-0.264589,0.169232,-0.115698
12.350319,547,0.000000,0.000000,0.000000,-0.205066,0.205859,-0.033283
12.372643,548,0.000000,0.000000,0.000000,-0.181638,0.272590,0.008774
12.395087,549,0.000000,0.000000,0.000000,-0.186696,0.345303,0.021900
12.417169,550,0.000000,0.000000,0.000000,-0.205769,0.418914,0.046328
12.439315,551,0.000000,0.000000,0.000000,-0.187599,0.489084,0.052745
12.462064,552,0.000000,0.000000,0.000000,-0.053194,0.540757,0.041029
12.483691,553,0.000000,0.000000,0.000000,0.158044,0.592675,0.057409
12.506082,554,0.000000,0.000000,0.000000,0.352343,0.658851,0.139941
12.529383,555,0.000000,0.000000,0.000000,0.484476,0.677988,0.207627
12.550469,556,0.000000,0.000000,0.000000,0.546230,0.644275,0.233294
12.572719,557,0.000000,0.000000,0.000000,0.542729,0.600896,0.249964
12.595160,558,0.000000,0.000000,0.000000,0.495906,0.574916,0.284488
12.617229,559,0.000000,0.000000,0.000000,0.477233,0.544676,0.338951
12.639358,560,0.000000,0.000000,0.000000,0.462914,0.540990,0.386202
12.662350,561,0.000000,0.000000,0.000000,0.453668,0.546424,0.361259
12.683871,562,0.000000,0.000000,0.000000,0.447564,0.548309,0.310295
12.706260,563,0.000000,0.000000,0.000000,0.420693,0.567314,0.311595
12.729268,564,0.000000,0.000000,0.000000,0.442281,0.540975,0.296040
12.750559,565,0.000000,0.000000,0.000000,0.480245,0.486373,0.245419
12.772747,566,0.000000,0.000000,0.000000,0.466461,0.423840,0.225519
12.795309,567,0.000000,0.000000,0.000000,0.424815,0.346784,0.274826
12.817110,568,0.000000,0.000000,0.000000,0.386162,0.239156,0.298433
12.839469,569,0.000000,0.000000,0.000000,0.333876,0.123750,0.229748
12.863050,570,0.000000,0.000000,0.000000,0.273125,0.057047,0.151869
12.883701,571,0.000000,0.000000,0.000000,0.193147,-0.079921,0.094137
12.906215,572,0.000000,0.000000,0.000000,0.225195,-0.008775,0.055408
12.929165,573,0.000000,0.000000,0.000000,0.229449,0.003289,0.005389
12.950438,574,0.000000,0.000000,0.000000,0.232142,-0.026985,-0.011973
12.972690,575,0.000000,0.000000,0.000000,0.243515,-0.021007,-0.037255
12.995361,576,0.000000,0.000000,0.000000,0.260296,-0.023217,-0.057953
13.017780,577,0.000000,0.000000,0.000000,0.287040,-0.056443,-0.058651
13.048874,578,0.000000,0.000000,0.000000,0.283325,-0.089224,-0.054523
13.072763,579,0.000000,0.000000,0.000000,0.106623,-0.249917,-0.160347
13.095154,580,0.000000,0.000000,0.000000,-0.039120,-0.300531,0.053364
13.117361,581,0.000000,0.000000,0.000000,-0.081409,-0.341256,0.093107
13.139495,582,0.000000,0.000000,0.000000,-0.092875,-0.283645,-0.078625
13.162317,583,0.000000,0.000000,0.000000,-0.076832,-0.181926,-0.100424
13.183855,584,0.000000,0.000000,0.000000,-0.055653,-0.073327,-0.063428
13.206110,585,0.000000,0.000000,0.000000,0.013661,-0.222368,-0.098104
13.228605,586,0.000000,0.000000,0.000000,-0.016936,-0.075706,-0.014193
13.250729,587,0.000000,0.000000,0.000000,-0.033742,0.083404,0.022805
13.272978,588,0.000000,0.000000,0.000000,-0.063002,0.019973,-0.039985
13.295280,589,0.000000,0.000000,0.000000,-0.067824,0.069961,-0.064579
13.317469,590,0.000000,0.000000,0.000000,0.016367,0.008810,0.315512
13.339653,591,0.000000,0.000000,0.000000,0.094796,0.045742,0.349256
13.362291,592,0.000000,0.000000,0.000000,-0.016448,-0.019226,0.030761
13.383962,593,0.000000,0.000000,0.000000,0.047309,-0.048037,-0.052962
13.406368,594,0.000000,0.000000,0.000000,0.053754,-0.131729,0.019072
13.429054,595,0.000000,0.000000,0.000000,-0.014302,-0.219437,-0.037796
13.450741,596,0.000000,0.000000,0.000000,-0.026409,-0.218668,-0.020567
13.473138,597,0.000000,0.000000,0.000000,-0.068417,-0.226955,-0.118278
13.495595,598,0.000000,0.000000,0.000000,-0.093732,-0.260669,-0.208288
13.517599,599,0.000000,0.000000,0.000000,-0.054434,-0.243458,-0.114100
13.539780,600,0.000000,0.000000,0.000000,-0.001577,-0.262225,-0.012297
13.562819,601,0.000000,0.000000,0.000000,0.027250,-0.283810,-0.061202
13.584223,602,0.000000,0.000000,0.000000,-0.004283,-0.328218,-0.029958
13.606420,603,0.000000,0.000000,0.000000,-0.015773,-0.195329,0.010995
13.629640,604,0.000000,0.000000,0.000000,-0.173965,-0.167986,-0.056186
13.650846,605,0.000000,0.000000,0.000000,-0.224543,-0.091093,0.001176
13.672857,606,0.000000,0.000000,0.000000,-0.210418,-0.017725,-0.005693
13.695317,607,0.000000,0.000000,0.000000,-0.143760,-0.071922,0.078283
13.717511,608,0.000000,0.000000,0.000000,-0.012479,-0.056993,0.151614
13.739685,609,0.000000,0.000000,0.000000,0.019444,-0.070274,-0.003843
13.762081,610,0.000000,0.000000,0.000000,-0.015842,0.037532,-0.131986
13.784045,611,0.000000,0.000000,0.000000,-0.086396,-0.028125,0.053345
13.806343,612,0.000000,0.000000,0.000000,-0.007730,0.047288,0.073923
13.828590,613,0.000000,0.000000,0.000000,0.030093,-0.027169,0.004623
13.850796,614,0.000000,0.000000,0.000000,0.100810,0.002733,-0.073076
13.872925,615,0.000000,0.000000,0.000000,0.126984,-0.018030,-0.194470
13.895615,616,0.000000,0.000000,0.000000,0.153178,-0.111320,-0.099138
13.917536,617,0.000000,0.000000,0.000000,0.148287,-0.142368,-0.109769
13.939671,618,0.000000,0.000000,0.000000,0.106631,-0.115084,-0.189599
13.962260,619,0.000000,0.000000,0.000000,0.070232,-0.072608,-0.333612
13.984035,620,0.000000,0.000000,0.000000,0.005713,-0.068836,-0.425012
14.006499,621,0.000000,0.000000,0.000000,0.014650,-0.017107,-0.330671
14.028685,622,0.000000,0.000000,0.000000,0.053288,-0.054838,-0.197668
14.062723,623,0.000000,0.000000,0.000000,0.103998,-0.115502,-0.157171
14.083990,624,0.000000,0.000000,0.000000,0.171266,-0.166094,-0.225104
14.106613,625,0.000000,0.000000,0.000000,0.141111,-0.162657,-0.237210
14.129587,626,0.000000,0.000000,0.000000,0.094592,-0.171886,-0.253930
14.150794,627,0.000000,0.000000,0.000000,0.078902,-0.190768,-0.214793
14.173145,628,0.000000,0.000000,0.000000,0.095325,-0.184469,-0.180747
14.195670,629,0.000000,0.000000,0.000000,0.294193,0.841748,1.187751
14.217990,630,0.000000,0.000000,0.000000,0.241292,0.215204,0.682389
14.239889,631,0.000000,0.000000,0.000000,0.103083,0.395309,-0.134084
14.262571,632,0.000000,0.000000,0.000000,0.122062,0.533283,-0.490332
14.284386,633,0.000000,0.000000,0.000000,0.025771,0.427472,-0.425028
14.306754,634,0.000000,0.000000,0.000000,-0.027575,0.093057,-0.307102
14.328912,635,0.000000,0.000000,0.000000,0.025275,-0.077641,-0.296988
14.351210,636,0.000000,0.000000,0.000000,0.064961,-0.203731,-0.222496
14.373319,637,0.000000,0.000000,0.000000,0.051060,-0.305698,-0.142513
14.395992,638,0.000000,0.000000,0.000000,0.025429,-0.341507,-0.121787
14.418121,639,0.000000,0.000000,0.000000,0.005239,-0.362403,-0.115095
14.439913,640,0.000000,0.000000,0.000000,-0.014818,-0.360980,-0.106632
14.463032,641,0.000000,0.000000,0.000000,-0.014900,-0.348037,-0.094756
14.484416,642,0.000000,0.000000,0.000000,0.006068,-0.337629,-0.061154
14.507000,643,0.000000,0.000000,0.000000,-0.002612,-0.317634,-0.018277
14.529997,644,0.000000,0.000000,0.000000,-0.049629,-0.272785,-0.003630
14.550984,645,0.000000,0.000000,0.000000,-0.078757,-0.227357,0.038992
14.573477,646,0.000000,0.000000,0.000000,-0.068505,-0.197287,0.088950
14.596249,647,0.000000,0.000000,0.000000,-0.058508,-0.181143,0.089604
14.618142,648,0.000000,0.000000,0.000000,-0.041221,-0.172134,0.100611
14.640041,649,0.000000,0.000000,0.000000,-0.028283,-0.183610,0.134978
14.663012,650,0.000000,0.000000,0.000000,-0.034154,-0.211552,0.121240
14.684494,651,0.000000,0.000000,0.000000,-0.035098,-0.225645,0.074235
14.706945,652,0.000000,0.000000,0.000000,-0.003929,-0.231251,0.066135
14.729922,653,0.000000,0.000000,0.000000,0.027461,-0.257640,0.041345
14.751187,654,0.000000,0.000000,0.000000,0.023814,-0.270702,0.005236
14.773737,655,0.000000,0.000000,0.000000,-0.008083,-0.267884,-0.023370
14.796055,656,0.000000,0.000000,0.000000,-0.025505,-0.255590,-0.034787
14.817588,657,0.000000,0.000000,0.000000,-0.015264,-0.243142,-0.035441
14.839669,658,0.000000,0.000000,0.000000,0.001225,-0.231259,-0.013892
14.862096,659,0.000000,0.000000,0.000000,0.017880,-0.211020,0.014459
14.883993,660,0.000000,0.000000,0.000000,0.022162,-0.202087,0.034623
14.906502,661,0.000000,0.000000,0.000000,0.031847,-0.195697,0.050846
14.929075,662,0.000000,0.000000,0.000000,0.028274,-0.180541,0.045074
14.950769,663,0.000000,0.000000,0.000000,0.031579,-0.160024,0.035949
14.973207,664,0.000000,0.000000,0.000000,0.040667,-0.144214,0.069465
14.995246,665,0.000000,0.000000,0.000000,0.031322,-0.133806,0.067467
15.018577,666,0.000000,0.000000,0.000000,0.011225,-0.116352,0.040691
15.061920,667,0.000000,0.000000,0.000000,0.004648,-0.107721,0.023857
15.084248,668,0.000000,0.000000,0.000000,0.059581,-0.122914,0.017132
15.106772,669,0.000000,0.000000,0.000000,0.081951,-0.129961,0.019650
15.129815,670,0.000000,0.000000,0.000000,0.083524,-0.126112,0.040712
15.151692,671,0.000000,0.000000,0.000000,0.071857,-0.119554,0.044585
15.173401,672,0.000000,0.000000,0.000000,0.046382,-0.105296,0.011006
15.196054,673,0.000000,0.000000,0.000000,0.031663,-0.088304,-0.004296
15.218191,674,0.000000,0.000000,0.000000,0.037691,-0.085358,0.013975
15.240063,675,0.000000,0.000000,0.000000,0.037579,-0.086783,0.025068
15.262600,676,0.000000,0.000000,0.000000,0.024251,-0.075361,0.010750
15.284725,677,0.000000,0.000000,0.000000,0.027423,-0.057496,-0.007309
15.307030,678,0.000000,0.000000,0.000000,0.049849,-0.055534,0.004224
15.330146,679,0.000000,0.000000,0.000000,0.066203,-0.064578,0.021656
15.351302,680,0.000000,0.000000,0.000000,0.055903,-0.063235,0.006708
15.373911,681,0.000000,0.000000,0.000000,0.012620,-0.052583,-0.018980
15.396053,682,0.000000,0.000000,0.000000,-0.029912,-0.045671,-0.035701
15.418309,683,0.000000,0.000000,0.000000,-0.041359,-0.041821,-0.016561
15.441344,684,0.000000,0.000000,0.000000,-0.029920,-0.044607,0.005022
15.463082,685,0.000000,0.000000,0.000000,-0.034372,-0.041244,-0.021315
15.484843,686,0.000000,0.000000,0.000000,-0.044470,-0.032479,-0.039864
15.507307,687,0.000000,0.000000,0.000000,-0.035793,-0.023958,-0.010859
15.529621,688,0.000000,0.000000,0.000000,-0.026617,-0.026089,-0.004844
15.551514,689,0.000000,0.000000,0.000000,-0.020980,-0.016502,-0.033439
15.573876,690,0.000000,0.000000,0.000000,-0.008181,-0.001178,-0.011069
15.597005,691,0.000000,0.000000,0.000000,-0.007046,-0.002000,0.021786
15.618451,692,0.000000,0.000000,0.000000,-0.013739,-0.007571,0.011133
15.640787,693,0.000000,0.000000,0.000000,-0.007836,-0.002412,0.010068
15.663374,694,0.000000,0.000000,0.000000,0.002949,-0.006673,0.026324
15.685095,695,0.000000,0.000000,0.000000,-0.002789,-0.019213,0.021652
15.707485,696,0.000000,0.000000,0.000000,-0.014375,-0.026260,0.030174
15.729971,697,0.000000,0.000000,0.000000,-0.016918,-0.031587,0.035911
15.751691,698,0.000000,0.000000,0.000000,-0.016230,-0.037401,0.028454
15.774208,699,0.000000,0.000000,0.000000,-0.015107,-0.038223,0.007635
15.796515,700,0.000000,0.000000,0.000000,-0.009065,-0.035844,-0.017897
15.818838,701,0.000000,0.000000,0.000000,-0.004005,-0.033997,-0.035404
15.840813,702,0.000000,0.000000,0.000000,-0.008604,-0.041120,-0.016087
15.863375,703,0.000000,0.000000,0.000000,-0.015847,-0.053583,0.007014
15.885446,704,0.000000,0.000000,0.000000,-0.027699,-0.060873,-0.004461
15.907667,705,0.000000,0.000000,0.000000,-0.045833,-0.054615,-0.031892
15.930043,706,0.000000,0.000000,0.000000,-0.060714,-0.049122,-0.047814
15.951884,707,0.000000,0.000000,0.000000,-0.058451,-0.049944,-0.040936
15.974316,708,0.000000,0.000000,0.000000,-0.045392,-0.055027,-0.043906
15.996613,709,0.000000,0.000000,0.000000,-0.034497,-0.054368,-0.046119
16.018815,710,0.000000,0.000000,0.000000,-0.030747,-0.048829,-0.059532
16.060870,711,0.000000,0.000000,0.000000,-0.028207,-0.037574,-0.063985
16.085234,712,0.000000,0.000000,0.000000,-0.006527,-0.021185,-0.048383
16.107976,713,0.000000,0.000000,0.000000,-0.001236,-0.010533,-0.033586
16.130114,714,0.000000,0.000000,0.000000,-0.002135,0.001839,-0.039075
16.151990,715,0.000000,0.000000,0.000000,-0.001238,0.012248,-0.034762
16.174365,716,0.000000,0.000000,0.000000,0.008045,0.019294,-0.019323
16.196893,717,0.000000,0.000000,0.000000,0.021431,0.014377,-0.017904
16.219205,718,0.000000,0.000000,0.000000,0.027462,0.015686,-0.016428
16.240895,719,0.000000,0.000000,0.000000,0.031099,0.015853,-0.015043
16.264330,720,0.000000,0.000000,0.000000,0.031178,0.017162,-0.026751
16.285764,721,0.000000,0.000000,0.000000,0.031537,0.018227,-0.034670
16.307623,722,0.000000,0.000000,0.000000,0.020084,0.016339,-0.009868
16.330021,723,0.000000,0.000000,0.000000,-0.005032,-0.010293,0.020336
16.351944,724,0.000000,0.000000,0.000000,-0.029352,-0.047333,0.048410
16.374559,725,0.000000,0.000000,0.000000,-0.043966,-0.087757,0.053192
16.397737,726,0.000000,0.000000,0.000000,-0.043191,-0.122256,0.013754
16.419185,727,0.000000,0.000000,0.000000,-0.034092,-0.145726,0.008329
16.441310,728,0.000000,0.000000,0.000000,-0.007350,-0.186617,0.009516
16.463778,729,0.000000,0.000000,0.000000,0.027670,-0.234665,0.001394
16.485760,730,0.000000,0.000000,0.000000,0.042751,-0.326185,0.002238
16.507759,731,0.000000,0.000000,0.000000,0.057774,-0.534796,-0.004528
16.530070,732,0.000000,0.000000,0.000000,0.061091,-0.800905,-0.046410
16.552038,733,0.000000,0.000000,0.000000,0.035524,-0.964163,-0.044013
16.574457,734,0.000000,0.000000,0.000000,0.028843,-1.045067,-0.003765
16.596735,735,0.000000,0.000000,0.000000,0.044589,-1.106065,0.055901
16.618985,736,0.000000,0.000000,0.000000,0.052301,-1.216233,0.110161
16.641324,737,0.000000,0.000000,0.000000,0.062056,-1.396600,0.115690
16.663602,738,0.000000,0.000000,0.000000,0.094113,-1.533227,0.138826
16.685617,739,0.000000,0.000000,0.000000,0.111279,-1.636048,0.185310
16.708579,740,0.000000,0.000000,0.000000,0.088896,-1.780959,0.212997
16.730625,741,0.000000,0.000000,0.000000,0.018844,-1.882925,0.260003
16.752177,742,0.000000,0.000000,0.000000,-0.060240,-2.030786,0.275028
16.774610,743,0.000000,0.000000,0.000000,-0.131201,-2.282334,0.266397
16.797053,744,0.000000,0.000000,0.000000,-0.163436,-2.483070,0.275876
16.819898,745,0.000000,0.000000,0.000000,-0.179004,-2.665542,0.273336
16.841127,746,0.000000,0.000000,0.000000,-0.189970,-2.839570,0.318380
16.863851,747,0.000000,0.000000,0.000000,-0.199301,-2.980817,0.373799
16.886535,748,0.000000,0.000000,0.000000,-0.204916,-3.048416,0.413847
16.908191,749,0.000000,0.000000,0.000000,-0.211458,-2.992739,0.474037
16.931170,750,0.000000,0.000000,0.000000,-0.217628,-2.828048,0.532595
16.952223,751,0.000000,0.000000,0.000000,-0.226660,-2.635425,0.597491
16.974392,752,0.000000,0.000000,0.000000,-0.209726,-2.414327,0.607585
16.996908,753,0.000000,0.000000,0.000000,-0.165435,-2.147456,0.575601
17.018948,754,0.000000,0.000000,0.000000,-0.154343,-1.833979,0.554442
17.061759,755,0.000000,0.000000,0.000000,-0.157232,-1.498132,0.528687
17.085918,756,0.000000,0.000000,0.000000,-0.035820,-0.864746,0.563165
17.108050,757,0.000000,0.000000,0.000000,-0.003718,-0.580889,0.538242
17.131174,758,0.000000,0.000000,0.000000,0.009166,-0.334230,0.476638
17.152283,759,0.000000,0.000000,0.000000,0.045553,-0.142942,0.480365
17.174584,760,0.000000,0.000000,0.000000,0.052393,0.062089,0.445255
17.196850,761,0.000000,0.000000,0.000000,-0.017365,0.227352,0.321395
17.219324,762,0.000000,0.000000,0.000000,-0.067942,0.333613,0.209172
17.241341,763,0.000000,0.000000,0.000000,-0.068259,0.404928,0.177447
17.263696,764,0.000000,0.000000,0.000000,-0.053854,0.463931,0.157881
17.285824,765,0.000000,0.000000,0.000000,-0.078725,0.541731,0.105282
17.308680,766,0.000000,0.000000,0.000000,-0.128657,0.619475,0.019599
17.330354,767,0.000000,0.000000,0.000000,-0.135689,0.626524,-0.013588
17.352199,768,0.000000,0.000000,0.000000,-0.132782,0.597075,0.034625
17.374788,769,0.000000,0.000000,0.000000,-0.168355,0.573753,0.060287
17.396941,770,0.000000,0.000000,0.000000,-0.213800,0.511115,-0.039253
17.419132,771,0.000000,0.000000,0.000000,-0.206268,0.403248,-0.098198
17.441268,772,0.000000,0.000000,0.000000,-0.166705,0.307568,-0.027753
17.463917,773,0.000000,0.000000,0.000000,-0.159864,0.235920,0.024448
17.486081,774,0.000000,0.000000,0.000000,-0.173665,0.181183,-0.019662
17.508747,775,0.000000,0.000000,0.000000,-0.159958,0.126991,-0.080147
17.530038,776,0.000000,0.000000,0.000000,-0.121126,0.103859,-0.050301
17.551937,777,0.000000,0.000000,0.000000,-0.088029,0.125988,-0.008570
17.574307,778,0.000000,0.000000,0.000000,-0.074327,0.180187,-0.034172
17.596865,779,0.000000,0.000000,0.000000,-0.041915,0.241731,-0.075308
17.619077,780,0.000000,0.000000,0.000000,-0.005138,0.342557,-0.093472
17.641256,781,0.000000,0.000000,0.000000,0.033697,0.508068,-0.135432
17.663640,782,0.000000,0.000000,0.000000,0.082670,0.844881,-0.287071
17.685881,783,0.000000,0.000000,0.000000,0.137313,1.407121,-0.478231
17.707960,784,0.000000,0.000000,0.000000,0.189678,2.185382,-0.565199
17.730667,785,0.000000,0.000000,0.000000,0.172217,3.135895,-0.459681
17.752370,786,0.000000,0.000000,0.000000,0.113574,3.914974,-0.315019
17.774452,787,0.000000,0.000000,0.000000,-0.019191,4.323636,-0.358359
17.796899,788,0.000000,0.000000,0.000000,-0.172329,4.518705,-0.334990
17.819211,789,0.000000,0.000000,0.000000,-0.262101,4.607180,-0.195674
17.841336,790,0.000000,0.000000,0.000000,-0.258640,4.586779,-0.136816
17.863979,791,0.000000,0.000000,0.000000,-0.238942,4.500111,-0.227566
17.885878,792,0.000000,0.000000,0.000000,-0.244566,4.465950,-0.325259
17.908174,793,0.000000,0.000000,0.000000,-0.249941,4.477264,-0.415646
17.930504,794,0.000000,0.000000,0.000000,-0.219627,4.454378,-0.558699
17.952383,795,0.000000,0.000000,0.000000,-0.220813,4.521117,-0.689948
17.974530,796,0.000000,0.000000,0.000000,-0.218838,4.634396,-0.715505
17.996866,797,0.000000,0.000000,0.000000,-0.233763,4.607432,-0.771118
18.019237,798,0.000000,0.000000,0.000000,-0.239855,4.398872,-0.850539
18.068177,799,0.000000,0.000000,0.000000,-0.170728,4.076056,-0.824495
18.086155,800,0.000000,0.000000,0.000000,0.036873,3.247731,-0.517626
18.108110,801,0.000000,0.000000,0.000000,0.084958,2.708816,-0.387786
18.130339,802,0.000000,0.000000,0.000000,0.106707,2.097876,-0.332352
18.152674,803,0.000000,0.000000,0.000000,0.135636,1.546400,-0.411493
18.174876,804,0.000000,0.000000,0.000000,0.197409,1.119490,-0.479937
18.197039,805,0.000000,0.000000,0.000000,0.274036,0.741222,-0.524157
18.219246,806,0.000000,0.000000,0.000000,0.282506,0.436845,-0.649748
18.241342,807,0.000000,0.000000,0.000000,0.261930,0.249473,-0.739630
18.263949,808,0.000000,0.000000,0.000000,0.303102,0.206919,-0.689567
18.285875,809,0.000000,0.000000,0.000000,0.334887,0.241042,-0.600033
18.307998,810,0.000000,0.000000,0.000000,0.292564,0.273353,-0.517702
18.331387,811,0.000000,0.000000,0.000000,0.232404,0.261878,-0.413292
18.352559,812,0.000000,0.000000,0.000000,0.184632,0.203942,-0.361051
18.374603,813,0.000000,0.000000,0.000000,0.127623,0.141091,-0.293265
18.396879,814,0.000000,0.000000,0.000000,0.114759,0.064525,-0.207247
18.418987,815,0.000000,0.000000,0.000000,0.140723,-0.034168,-0.173640
18.441363,816,0.000000,0.000000,0.000000,0.147355,-0.111388,-0.254205
18.463823,817,0.000000,0.000000,0.000000,0.124358,-0.115969,-0.275289
18.486452,818,0.000000,0.000000,0.000000,0.099898,-0.102699,-0.226879
18.508698,819,0.000000,0.000000,0.000000,0.056324,-0.075379,-0.298469
18.530622,820,0.000000,0.000000,0.000000,-0.043880,0.006060,-0.440458
18.552525,821,0.000000,0.000000,0.000000,-0.132528,0.157472,-0.486686
18.574629,822,0.000000,0.000000,0.000000,-0.138406,0.301093,-0.467417
18.597047,823,0.000000,0.000000,0.000000,-0.127848,0.379210,-0.573272
18.620737,824,0.000000,0.000000,0.000000,-0.115605,0.406573,-0.579911
18.641192,825,0.000000,0.000000,0.000000,-0.085716,0.299357,-0.482596
18.663865,826,0.000000,0.000000,0.000000,-0.020208,0.039553,-0.394753
18.685867,827,0.000000,0.000000,0.000000,0.104627,-0.226808,-0.299357
18.708895,828,0.000000,0.000000,0.000000,0.237681,-0.532696,-0.177622
18.730516,829,0.000000,0.000000,0.000000,0.357493,-0.956615,-0.016484
18.752263,830,0.000000,0.000000,0.000000,0.522937,-1.420218,0.219952
18.774458,831,0.000000,0.000000,0.000000,0.697973,-1.791275,0.424184
18.797018,832,0.000000,0.000000,0.000000,0.772923,-2.005891,0.453842
18.819316,833,0.000000,0.000000,0.000000,0.808980,-2.065735,0.461371
18.841487,834,0.000000,0.000000,0.000000,0.850388,-1.981902,0.569612
18.863802,835,0.000000,0.000000,0.000000,0.838435,-1.860897,0.700720
18.886149,836,0.000000,0.000000,0.000000,0.789771,-1.729315,0.751836
18.908952,837,0.000000,0.000000,0.000000,0.754632,-1.584710,0.742872
18.930422,838,0.000000,0.000000,0.000000,0.659031,-1.543768,0.741939
18.952381,839,0.000000,0.000000,0.000000,0.535052,-1.598509,0.755243
18.974772,840,0.000000,0.000000,0.000000,0.442376,-1.627165,0.692557
18.997209,841,0.000000,0.000000,0.000000,0.239374,-1.780488,0.497509
19.019492,842,0.000000,0.000000,0.000000,0.051659,-2.073173,0.376309
19.041374,843,0.000000,0.000000,0.000000,0.159355,-2.235260,0.488461
19.089898,844,0.000000,0.000000,0.000000,0.298138,-2.250284,0.600383
19.108019,845,0.000000,0.000000,0.000000,0.745651,-1.939010,0.739259
19.131275,846,0.000000,0.000000,0.000000,0.787174,-1.708248,0.743201
19.152701,847,0.000000,0.000000,0.000000,0.825610,-1.462683,0.754967
19.174794,848,0.000000,0.000000,0.000000,0.916572,-1.230069,0.719357
19.197320,849,0.000000,0.000000,0.000000,1.037381,-1.045426,0.667849
19.219176,850,0.000000,0.000000,0.000000,1.106994,-0.909129,0.635948
19.241538,851,0.000000,0.000000,0.000000,1.125223,-0.882422,0.630866
19.264862,852,0.000000,0.000000,0.000000,1.183987,-0.992457,0.641745
19.285910,853,0.000000,0.000000,0.000000,1.268679,-1.112154,0.611958
19.308133,854,0.000000,0.000000,0.000000,1.368615,-1.187355,0.508775
19.330602,855,0.000000,0.000000,0.000000,1.439258,-1.216881,0.430332
19.352772,856,0.000000,0.000000,0.000000,1.407646,-1.191148,0.445286
19.374783,857,0.000000,0.000000,0.000000,1.325188,-1.086851,0.447487
19.397149,858,0.000000,0.000000,0.000000,1.321134,-0.922001,0.346885
19.419211,859,0.000000,0.000000,0.000000,1.415825,-0.735956,0.151942
19.441353,860,0.000000,0.000000,0.000000,1.523001,-0.527297,-0.054146
19.464072,861,0.000000,0.000000,0.000000,1.578195,-0.325408,-0.181926
19.486147,862,0.000000,0.000000,0.000000,1.617446,-0.146464,-0.258452
19.508268,863,0.000000,0.000000,0.000000,1.693359,0.037694,-0.345455
19.531092,864,0.000000,0.000000,0.000000,1.775134,0.218245,-0.386734
19.552739,865,0.000000,0.000000,0.000000,1.786595,0.352691,-0.357904
19.574715,866,0.000000,0.000000,0.000000,1.747247,0.429671,-0.300797
19.597188,867,0.000000,0.000000,0.000000,1.688407,0.471279,-0.274838
19.619630,868,0.000000,0.000000,0.000000,1.619324,0.520645,-0.255664
19.641595,869,0.000000,0.000000,0.000000,1.498211,0.550010,-0.275999
19.664185,870,0.000000,0.000000,0.000000,1.327182,0.503253,-0.332245
19.688729,871,0.000000,0.000000,0.000000,1.252757,0.423194,-0.323870
19.708045,872,0.000000,0.000000,0.000000,1.272520,0.373432,-0.277889
19.730283,873,0.000000,0.000000,0.000000,1.248835,0.336151,-0.192208
19.752188,874,0.000000,0.000000,0.000000,1.076231,0.321385,-0.126243
19.774525,875,0.000000,0.000000,0.000000,0.846722,0.333009,-0.116227
19.797130,876,0.000000,0.000000,0.000000,0.623101,0.353341,-0.147898
19.819175,877,0.000000,0.000000,0.000000,0.462633,0.350837,-0.169403
19.841633,878,0.000000,0.000000,0.000000,0.319670,0.320710,-0.115545
19.864014,879,0.000000,0.000000,0.000000,0.181221,0.275184,-0.060674
19.886405,880,0.000000,0.000000,0.000000,0.054712,0.243751,-0.027251
19.908208,881,0.000000,0.000000,0.000000,-0.043906,0.217158,-0.008011
19.930719,882,0.000000,0.000000,0.000000,-0.208439,0.164421,0.019179
19.952825,883,0.000000,0.000000,0.000000,-0.394980,0.098488,0.031898
19.974946,884,0.000000,0.000000,0.000000,-0.485083,0.050479,0.006283
19.997192,885,0.000000,0.000000,0.000000,-0.501728,0.030730,-0.048050
20.020032,886,0.000000,0.000000,0.000000,-0.555812,0.027571,-0.058004
20.041603,887,0.000000,0.000000,0.000000,-0.680348,0.014492,-0.056237
20.099646,888,0.000000,0.000000,0.000000,-0.778972,-0.010005,-0.085731
20.119403,889,0.000000,0.000000,0.000000,-0.865800,-0.047825,-0.107033
20.141512,890,0.000000,0.000000,0.000000,-0.981657,-0.118539,-0.076736
20.163726,891,0.000000,0.000000,0.000000,-1.069600,-0.205066,-0.032958
20.186078,892,0.000000,0.000000,0.000000,-1.055295,-0.287367,0.016331
20.208126,893,0.000000,0.000000,0.000000,-1.041479,-0.451482,0.114742
20.230648,894,0.000000,0.000000,0.000000,-1.033528,-0.675439,0.209884
20.252938,895,0.000000,0.000000,0.000000,-1.035681,-0.856920,0.276659
20.274960,896,0.000000,0.000000,0.000000,-1.098623,-1.079459,0.370890
20.297231,897,0.000000,0.000000,0.000000,-1.131639,-1.329116,0.462418
20.321230,898,0.000000,0.000000,0.000000,-1.037799,-1.490710,0.528098
20.341389,899,0.000000,0.000000,0.000000,-0.965304,-1.592464,0.603926
20.363780,900,0.000000,0.000000,0.000000,-1.008446,-1.821974,0.722961
20.386603,901,0.000000,0.000000,0.000000,-1.076355,-2.220834,0.909668
20.408184,902,0.000000,0.000000,0.000000,-1.042570,-2.546592,1.032769
20.430567,903,0.000000,0.000000,0.000000,-1.022687,-2.785465,1.208470
20.452995,904,0.000000,0.000000,0.000000,-0.999888,-3.052613,1.361765
20.474928,905,0.000000,0.000000,0.000000,-0.898185,-3.221090,1.346028
20.497969,906,0.000000,0.000000,0.000000,-0.825633,-3.274572,1.346356
20.519650,907,0.000000,0.000000,0.000000,-0.816587,-3.312510,1.424565
20.541741,908,0.000000,0.000000,0.000000,-0.768594,-3.279152,1.527685
20.563972,909,0.000000,0.000000,0.000000,-0.845176,-3.013160,1.805102
20.586502,910,0.000000,0.000000,0.000000,-1.259386,-2.442569,2.152205
20.608145,911,0.000000,0.000000,0.000000,-1.468995,-2.023970,1.970334
20.630693,912,0.000000,0.000000,0.000000,-1.139128,-1.904598,1.280987
20.652831,913,0.000000,0.000000,0.000000,-0.510859,-1.823006,0.783554
20.674871,914,0.000000,0.000000,0.000000,0.049365,-1.598065,0.681539
20.697328,915,0.000000,0.000000,0.000000,0.326345,-1.193366,0.490504
20.720019,916,0.000000,0.000000,0.000000,0.352448,-0.729741,0.319653
20.741495,917,0.000000,0.000000,0.000000,0.215650,-0.391132,0.473970
20.764192,918,0.000000,0.000000,0.000000,0.058051,-0.096887,0.715820
20.786149,919,0.000000,0.000000,0.000000,0.025158,0.165122,0.668017
20.808258,920,0.000000,0.000000,0.000000,0.064648,0.409699,0.453674
20.830907,921,0.000000,0.000000,0.000000,0.062961,0.569633,0.356125
20.853462,922,0.000000,0.000000,0.000000,0.058263,0.662010,0.282242
20.874876,923,0.000000,0.000000,0.000000,0.122117,0.753379,0.091653
20.897314,924,0.000000,0.000000,0.000000,0.251694,0.942132,-0.040296
20.919727,925,0.000000,0.000000,0.000000,0.402675,1.281854,-0.138591
20.941881,926,0.000000,0.000000,0.000000,0.543182,1.745048,-0.365308
20.964230,927,0.000000,0.000000,0.000000,0.699525,2.154031,-0.656988
20.986429,928,0.000000,0.000000,0.000000,0.846938,2.414014,-0.804558
21.008325,929,0.000000,0.000000,0.000000,0.931114,2.634722,-0.781682
21.030833,930,0.000000,0.000000,0.000000,0.959827,2.861467,-0.698328
21.053434,931,0.000000,0.000000,0.000000,0.955546,3.016153,-0.719776
21.107051,932,0.000000,0.000000,0.000000,0.942026,3.030492,-0.801594
21.128740,933,0.000000,0.000000,0.000000,0.903217,2.769332,-0.962897
21.151225,934,0.000000,0.000000,0.000000,0.797047,2.717548,-0.986683
21.173656,935,0.000000,0.000000,0.000000,0.636319,2.665055,-0.976884
21.196533,936,0.000000,0.000000,0.000000,0.589315,2.564680,-0.877895
21.218450,937,0.000000,0.000000,0.000000,0.620414,2.498114,-0.827186
21.240907,938,0.000000,0.000000,0.000000,0.607103,2.447363,-0.872364
21.263508,939,0.000000,0.000000,0.000000,0.527807,2.363863,-0.895206
21.285499,940,0.000000,0.000000,0.000000,0.398123,2.243732,-0.843216
21.307965,941,0.000000,0.000000,0.000000,0.269129,2.146963,-0.793744
21.330158,942,0.000000,0.000000,0.000000,0.204149,2.092805,-0.803977
21.352003,943,0.000000,0.000000,0.000000,0.120938,2.109308,-0.865133
21.374255,944,0.000000,0.000000,0.000000,-0.000601,2.187874,-0.904671
21.396763,945,0.000000,0.000000,0.000000,-0.042413,2.241660,-0.850150
21.419027,946,0.000000,0.000000,0.000000,-0.063586,2.286193,-0.840033
21.441214,947,0.000000,0.000000,0.000000,-0.123387,2.349735,-0.830775
21.463696,948,0.000000,0.000000,0.000000,-0.141412,2.355082,-0.755526
21.485742,949,0.000000,0.000000,0.000000,-0.106612,2.230546,-0.680640
21.507988,950,0.000000,0.000000,0.000000,-0.104118,2.041441,-0.637100
21.530220,951,0.000000,0.000000,0.000000,-0.130195,1.839441,-0.662834
21.552253,952,0.000000,0.000000,0.000000,-0.135828,1.656649,-0.718361
21.574600,953,0.000000,0.000000,0.000000,-0.128708,1.470736,-0.727225
21.597304,954,0.000000,0.000000,0.000000,-0.166992,1.297287,-0.693969
21.619859,955,0.000000,0.000000,0.000000,-0.215419,1.199334,-0.701390
21.641319,956,0.000000,0.000000,0.000000,-0.204047,1.170988,-0.747519
21.663892,957,0.000000,0.000000,0.000000,-0.255925,1.250864,-0.682805
21.685671,958,0.000000,0.000000,0.000000,-0.380288,1.403949,-0.546704
21.708109,959,0.000000,0.000000,0.000000,-0.436202,1.608732,-0.537858
21.731119,960,0.000000,0.000000,0.000000,-0.367741,1.850860,-0.657181
21.752215,961,0.000000,0.000000,0.000000,-0.322974,1.991904,-0.667838
21.774573,962,0.000000,0.000000,0.000000,-0.377984,1.938960,-0.531814
21.796939,963,0.000000,0.000000,0.000000,-0.349568,1.798855,-0.455936
21.819219,964,0.000000,0.000000,0.000000,-0.184494,1.649052,-0.465081
21.841365,965,0.000000,0.000000,0.000000,-0.064288,1.445543,-0.447777
21.864160,966,0.000000,0.000000,0.000000,-0.054548,1.140260,-0.433389
21.885677,967,0.000000,0.000000,0.000000,-0.065498,0.803593,-0.448874
21.908494,968,0.000000,0.000000,0.000000,-0.030897,0.512522,-0.450483
21.930456,969,0.000000,0.000000,0.000000,0.002107,0.277498,-0.412955
21.953021,970,0.000000,0.000000,0.000000,-0.011925,0.054846,-0.293939
21.974752,971,0.000000,0.000000,0.000000,-0.025747,-0.044411,-0.223131
21.997065,972,0.000000,0.000000,0.000000,0.046464,-0.006215,-0.186737
22.019103,973,0.000000,0.000000,0.000000,0.153486,0.090801,-0.120788
22.041587,974,0.000000,0.000000,0.000000,0.208865,0.112350,0.007601
22.103736,975,0.000000,0.000000,0.000000,0.254315,0.083421,0.199032
22.130331,976,0.000000,0.000000,0.000000,0.605081,-0.000556,0.234819
22.152188,977,0.000000,0.000000,0.000000,0.544251,0.036596,0.067532
22.174595,978,0.000000,0.000000,0.000000,0.532556,0.111032,0.000053
22.197134,979,0.000000,0.000000,0.000000,0.539736,0.142823,0.009362
22.219339,980,0.000000,0.000000,0.000000,0.498603,0.182272,0.002738
22.241459,981,0.000000,0.000000,0.000000,0.517449,0.226469,0.034584
22.264078,982,0.000000,0.000000,0.000000,0.584250,0.229311,0.074037
22.286301,983,0.000000,0.000000,0.000000,0.582231,0.188549,0.058882
22.308101,984,0.000000,0.000000,0.000000,0.539913,0.125369,0.007503
22.330451,985,0.000000,0.000000,0.000000,0.550979,0.047738,0.011189
22.352552,986,0.000000,0.000000,0.000000,0.552677,-0.042676,0.078386
22.374883,987,0.000000,0.000000,0.000000,0.561503,-0.147516,0.174901
22.397707,988,0.000000,0.000000,0.000000,0.664892,-0.258768,0.288030
22.419796,989,0.000000,0.000000,0.000000,0.817922,-0.388498,0.441428
22.441516,990,0.000000,0.000000,0.000000,0.882642,-0.530078,0.575703
22.464089,991,0.000000,0.000000,0.000000,0.810462,-0.651294,0.616349
22.488479,992,0.000000,0.000000,0.000000,0.726320,-0.694726,0.654795
22.508757,993,0.000000,0.000000,0.000000,0.703350,-0.711359,0.744130
22.530075,994,0.000000,0.000000,0.000000,0.648469,-0.720501,0.838539
22.552380,995,0.000000,0.000000,0.000000,0.533616,-0.672831,0.900226
22.574666,996,0.000000,0.000000,0.000000,0.438330,-0.566403,0.930393
22.597082,997,0.000000,0.000000,0.000000,0.406382,-0.452198,0.929074
22.619507,998,0.000000,0.000000,0.000000,0.364272,-0.389481,0.892507
22.641569,999,0.000000,0.000000,0.000000,0.245465,-0.355692,0.838033
22.664209,1000,0.000000,0.000000,0.000000,0.144703,-0.326130,0.753826
22.686193,1001,0.000000,0.000000,0.000000,0.128894,-0.331867,0.670080
22.708561,1002,0.000000,0.000000,0.000000,0.150954,-0.398550,0.636315
22.730653,1003,0.000000,0.000000,0.000000,0.156476,-0.523305,0.635054
22.752924,1004,0.000000,0.000000,0.000000,0.153670,-0.711834,0.697579
22.775149,1005,0.000000,0.000000,0.000000,0.170596,-0.961282,0.829388
22.797437,1006,0.000000,0.000000,0.000000,0.184620,-1.269023,0.966339
22.819786,1007,0.000000,0.000000,0.000000,0.163641,-1.561159,1.058317
22.841674,1008,0.000000,0.000000,0.000000,0.138783,-1.791592,1.146978
22.864091,1009,0.000000,0.000000,0.000000,0.120965,-2.000522,1.186586
22.886185,1010,0.000000,0.000000,0.000000,0.123468,-2.175612,1.150068
22.908362,1011,0.000000,0.000000,0.000000,0.148370,-2.285722,1.102132
22.930714,1012,0.000000,0.000000,0.000000,0.170946,-2.337585,1.069560
22.952783,1013,0.000000,0.000000,0.000000,0.210570,-2.325080,1.026794
22.974932,1014,0.000000,0.000000,0.000000,0.267464,-2.286729,0.975841
22.997376,1015,0.000000,0.000000,0.000000,0.312387,-2.233465,0.923176
23.020870,1016,0.000000,0.000000,0.000000,0.319862,-2.173944,0.857675
23.041661,1017,0.000000,0.000000,0.000000,0.375928,-2.137834,0.754382
23.103355,1018,0.000000,0.000000,0.000000,0.436278,-2.055773,0.631588
23.131236,1019,0.000000,0.000000,0.000000,0.389289,-1.060190,0.458791
23.152821,1020,0.000000,0.000000,0.000000,0.301068,-0.825384,0.342491
23.175115,1021,0.000000,0.000000,0.000000,0.222238,-0.664390,0.326194
23.197319,1022,0.000000,0.000000,0.000000,0.165403,-0.511148,0.386265
23.219563,1023,0.000000,0.000000,0.000000,0.179529,-0.377058,0.382752
23.241999,1024,0.000000,0.000000,0.000000,0.192949,-0.258704,0.282515
23.264233,1025,0.000000,0.000000,0.000000,0.175268,-0.133756,0.203146
23.286325,1026,0.000000,0.000000,0.000000,0.145285,-0.004471,0.171672
23.309184,1027,0.000000,0.000000,0.000000,0.103997,0.105771,0.132471
23.330867,1028,0.000000,0.000000,0.000000,0.071456,0.164228,0.074980
23.353058,1029,0.000000,0.000000,0.000000,0.057897,0.210632,0.030636
23.375033,1030,0.000000,0.000000,0.000000,0.054654,0.241936,0.014132
23.397469,1031,0.000000,0.000000,0.000000,0.049931,0.248982,0.005741
23.419746,1032,0.000000,0.000000,0.000000,0.018523,0.223416,-0.028708
23.441580,1033,0.000000,0.000000,0.000000,-0.009961,0.176545,-0.040311
23.464137,1034,0.000000,0.000000,0.000000,-0.022611,0.140083,-0.028265
23.486203,1035,0.000000,0.000000,0.000000,-0.030531,0.134514,-0.037939
23.508689,1036,0.000000,0.000000,0.000000,-0.037416,0.133936,-0.042855
23.530838,1037,0.000000,0.000000,0.000000,-0.053298,0.107305,-0.000431
23.553411,1038,0.000000,0.000000,0.000000,-0.071349,0.067532,0.065037
23.575527,1039,0.000000,0.000000,0.000000,-0.092389,0.033038,0.083801
23.597543,1040,0.000000,0.000000,0.000000,-0.109133,0.010912,0.088716
23.620221,1041,0.000000,0.000000,0.000000,-0.111952,-0.026295,0.104973
23.641908,1042,0.000000,0.000000,0.000000,-0.110610,-0.066063,0.095479
23.664195,1043,0.000000,0.000000,0.000000,-0.103831,-0.091629,0.074151
23.686873,1044,0.000000,0.000000,0.000000,-0.112764,-0.090563,0.076333
23.708736,1045,0.000000,0.000000,0.000000,-0.154841,-0.083893,0.104075
23.730887,1046,0.000000,0.000000,0.000000,-0.207728,-0.074138,0.105146
23.752821,1047,0.000000,0.000000,0.000000,-0.242326,-0.043545,0.080959
23.775031,1048,0.000000,0.000000,0.000000,-0.263150,-0.011753,0.031536
23.797647,1049,0.000000,0.000000,0.000000,-0.298408,0.001886,-0.006491
23.820009,1050,0.000000,0.000000,0.000000,-0.365241,0.008799,-0.023280
23.841941,1051,0.000000,0.000000,0.000000,-0.490732,0.011041,-0.037598
23.864326,1052,0.000000,0.000000,0.000000,-0.616264,0.019186,-0.055904
23.886396,1053,0.000000,0.000000,0.000000,-0.663948,0.024213,-0.070169
23.908580,1054,0.000000,0.000000,0.000000,-0.657641,0.025690,-0.067877
23.930803,1055,0.000000,0.000000,0.000000,-0.661298,0.026923,-0.070123
23.952980,1056,0.000000,0.000000,0.000000,-0.693336,0.044211,-0.081770
23.975297,1057,0.000000,0.000000,0.000000,-0.750894,0.063664,-0.084133
23.997589,1058,0.000000,0.000000,0.000000,-0.775614,0.073008,-0.064473
24.020039,1059,0.000000,0.000000,0.000000,-0.765870,0.072598,-0.031502
24.042159,1060,0.000000,0.000000,0.000000,-0.760409,0.062843,-0.013936
24.108241,1061,0.000000,0.000000,0.000000,-0.768554,0.057761,-0.012327
24.130135,1062,0.000000,0.000000,0.000000,-0.622044,0.038367,-0.034216
24.152456,1063,0.000000,0.000000,0.000000,-0.575306,0.033284,-0.043220
24.174967,1064,0.000000,0.000000,0.000000,-0.531293,0.029324,-0.058834
24.197457,1065,0.000000,0.000000,0.000000,-0.478378,0.027681,-0.076411
24.219638,1066,0.000000,0.000000,0.000000,-0.426857,0.030934,-0.090624
24.241541,1067,0.000000,0.000000,0.000000,-0.430608,0.033719,-0.070166
24.264030,1068,0.000000,0.000000,0.000000,-0.495223,0.033419,-0.034842
24.286277,1069,0.000000,0.000000,0.000000,-0.575843,0.031567,-0.004459
24.308180,1070,0.000000,0.000000,0.000000,-0.669759,0.037415,0.015370
24.330494,1071,0.000000,0.000000,0.000000,-0.715433,0.044982,0.020407
24.352845,1072,0.000000,0.000000,0.000000,-0.700318,0.046592,0.018093
24.374910,1073,0.000000,0.000000,0.000000,-0.643094,0.045040,0.009778
24.397405,1074,0.000000,0.000000,0.000000,-0.598376,0.045006,-0.005181
24.419474,1075,0.000000,0.000000,0.000000,-0.604062,0.050089,0.003642
24.441571,1076,0.000000,0.000000,0.000000,-0.627116,0.052907,0.014150
24.464249,1077,0.000000,0.000000,0.000000,-0.618838,0.047414,0.017213
24.486570,1078,0.000000,0.000000,0.000000,-0.589062,0.038614,0.017139
24.507875,1079,0.000000,0.000000,0.000000,-0.575984,0.027307,0.022661
24.530258,1080,0.000000,0.000000,0.000000,-0.564459,0.013215,0.033103
24.552116,1081,0.000000,0.000000,0.000000,-0.536159,-0.004928,0.033358
24.574637,1082,0.000000,0.000000,0.000000,-0.505266,-0.019842,0.032381
24.597243,1083,0.000000,0.000000,0.000000,-0.481720,-0.024625,0.026134
24.619680,1084,0.000000,0.000000,0.000000,-0.491440,-0.015825,0.019875
24.641432,1085,0.000000,0.000000,0.000000,-0.510649,-0.003453,0.023094
24.663852,1086,0.000000,0.000000,0.000000,-0.521956,0.001462,0.026012
24.685813,1087,0.000000,0.000000,0.000000,-0.547123,-0.016648,0.045974
24.708224,1088,0.000000,0.000000,0.000000,-0.571745,-0.050159,0.090604
24.731106,1089,0.000000,0.000000,0.000000,-0.554001,-0.061390,0.134340
24.752594,1090,0.000000,0.000000,0.000000,-0.495788,-0.050361,0.135602
24.774755,1091,0.000000,0.000000,0.000000,-0.419623,-0.037821,0.104297
24.797545,1092,0.000000,0.000000,0.000000,-0.340816,-0.032849,0.092435
24.819522,1093,0.000000,0.000000,0.000000,-0.283048,-0.024084,0.103343
24.841519,1094,0.000000,0.000000,0.000000,-0.237978,-0.008626,0.107782
24.863948,1095,0.000000,0.000000,0.000000,-0.206556,0.002682,0.082028
24.885821,1096,0.000000,0.000000,0.000000,-0.193131,0.000141,0.053007
24.908333,1097,0.000000,0.000000,0.000000,-0.184909,-0.004530,0.047190
24.931449,1098,0.000000,0.000000,0.000000,-0.173468,-0.019554,0.057167
24.952790,1099,0.000000,0.000000,0.000000,-0.170875,-0.034224,0.067033
24.974909,1100,0.000000,0.000000,0.000000,-0.164453,-0.042914,0.066977
24.997318,1101,0.000000,0.000000,0.000000,-0.143629,-0.051512,0.035575
25.019708,1102,0.000000,0.000000,0.000000,-0.116332,-0.052688,0.004091
25.041608,1103,0.000000,0.000000,0.000000,-0.093491,-0.044911,-0.004371
25.064239,1104,0.000000,0.000000,0.000000,-0.067840,-0.039007,-0.008487
25.117681,1105,0.000000,0.000000,0.000000,-0.057680,-0.038185,-0.011105
25.142183,1106,0.000000,0.000000,0.000000,-0.024367,-0.032449,0.011898
25.163931,1107,0.000000,0.000000,0.000000,-0.014664,-0.021720,0.009467
25.186400,1108,0.000000,0.000000,0.000000,-0.011007,-0.011966,0.019355
25.208376,1109,0.000000,0.000000,0.000000,-0.003743,-0.009668,0.021519
25.230856,1110,0.000000,0.000000,0.000000,0.008577,-0.008938,0.015892
25.253072,1111,0.000000,0.000000,0.000000,0.020572,-0.008360,0.012401
25.275058,1112,0.000000,0.000000,0.000000,0.030484,-0.008888,0.016413
25.297431,1113,0.000000,0.000000,0.000000,0.040400,-0.010359,0.012841
25.327836,1114,0.000000,0.000000,0.000000,0.058980,-0.013311,-0.001030
25.350256,1115,0.000000,0.000000,0.000000,0.062094,-0.007163,-0.010206
25.372911,1116,0.000000,0.000000,0.000000,0.063026,-0.003724,-0.017419
25.395476,1117,0.000000,0.000000,0.000000,0.059175,0.001191,-0.013679
25.418113,1118,0.000000,0.000000,0.000000,0.058076,0.003900,-0.008840
25.440108,1119,0.000000,0.000000,0.000000,0.055458,0.004554,-0.010971
25.463272,1120,0.000000,0.000000,0.000000,0.057942,0.006273,-0.018762
25.484893,1121,0.000000,0.000000,0.000000,0.057809,0.004965,-0.026051
25.508514,1122,0.000000,0.000000,0.000000,0.063135,0.007338,-0.027527
25.529795,1123,0.000000,0.000000,0.000000,0.065433,0.009469,-0.022444
25.551759,1124,0.000000,0.000000,0.000000,0.069335,0.014795,-0.019902
25.574225,1125,0.000000,0.000000,0.000000,0.072612,0.016925,-0.018919
25.596678,1126,0.000000,0.000000,0.000000,0.076514,0.012253,-0.010037
25.618664,1127,0.000000,0.000000,0.000000,0.084985,0.007170,-0.010580
25.641040,1128,0.000000,0.000000,0.000000,0.085808,-0.001596,-0.013776
25.663653,1129,0.000000,0.000000,0.000000,0.082688,-0.007820,-0.016810
25.685282,1130,0.000000,0.000000,0.000000,0.078351,-0.011838,-0.009271
25.707797,1131,0.000000,0.000000,0.000000,0.078352,-0.015612,-0.014405
25.729992,1132,0.000000,0.000000,0.000000,0.084367,-0.018397,-0.025140
25.752137,1133,0.000000,0.000000,0.000000,0.097395,-0.013725,-0.017816
25.774508,1134,0.000000,0.000000,0.000000,0.111343,-0.012249,-0.000083
25.796913,1135,0.000000,0.000000,0.000000,0.117491,-0.011428,0.000161
25.818933,1136,0.000000,0.000000,0.000000,0.115771,-0.006512,0.000328
25.841088,1137,0.000000,0.000000,0.000000,0.117624,-0.000365,0.013580
25.863583,1138,0.000000,0.000000,0.000000,0.105595,0.000122,0.028947
25.885491,1139,0.000000,0.000000,0.000000,0.076722,0.004551,0.040521
25.908095,1140,0.000000,0.000000,0.000000,0.070793,0.011840,0.042298
25.931257,1141,0.000000,0.000000,0.000000,0.083230,0.015446,0.035850
25.952223,1142,0.000000,0.000000,0.000000,0.102734,0.008157,0.031491
25.974722,1143,0.000000,0.000000,0.000000,0.128688,0.002907,0.017696
25.996953,1144,0.000000,0.000000,0.000000,0.157317,-0.001876,0.006407
26.019415,1145,0.000000,0.000000,0.000000,0.179143,-0.007446,0.002261
26.041207,1146,0.000000,0.000000,0.000000,0.197856,-0.016135,0.000677
26.063977,1147,0.000000,0.000000,0.000000,0.208345,-0.019985,-0.006988
26.125984,1148,0.000000,0.000000,0.000000,0.196054,-0.021949,-0.005871
26.151947,1149,0.000000,0.000000,0.000000,0.178767,-0.012285,-0.001804
26.174775,1150,0.000000,0.000000,0.000000,0.200316,-0.017445,-0.000350
26.196863,1151,0.000000,0.000000,0.000000,0.216295,-0.020230,-0.002613
26.219109,1152,0.000000,0.000000,0.000000,0.236402,-0.020918,-0.003778
26.241400,1153,0.000000,0.000000,0.000000,0.253446,-0.022227,-0.007684
26.263886,1154,0.000000,0.000000,0.000000,0.251183,-0.017722,-0.013832
26.285705,1155,0.000000,0.000000,0.000000,0.225096,-0.003764,-0.013920
26.308228,1156,0.000000,0.000000,0.000000,0.211936,0.008532,-0.024433
26.331446,1157,0.000000,0.000000,0.000000,0.234092,0.016643,-0.036122
26.352320,1158,0.000000,0.000000,0.000000,0.261570,0.019972,-0.039751
26.374620,1159,0.000000,0.000000,0.000000,0.283808,0.022346,-0.046083
26.397293,1160,0.000000,0.000000,0.000000,0.306097,0.023822,-0.042357
26.419616,1161,0.000000,0.000000,0.000000,0.326864,0.019150,-0.048284
26.441448,1162,0.000000,0.000000,0.000000,0.348934,0.010929,-0.054941
26.464058,1163,0.000000,0.000000,0.000000,0.362893,0.003061,-0.063486
26.485808,1164,0.000000,0.000000,0.000000,0.373280,-0.002189,-0.079431
26.508122,1165,0.000000,0.000000,0.000000,0.379405,-0.003742,-0.100869
26.531533,1166,0.000000,0.000000,0.000000,0.403264,-0.000378,-0.127305
26.552392,1167,0.000000,0.000000,0.000000,0.440919,-0.001310,-0.158572
26.574913,1168,0.000000,0.000000,0.000000,0.455451,0.004503,-0.177713
26.597156,1169,0.000000,0.000000,0.000000,0.427771,0.019694,-0.162887
26.619598,1170,0.000000,0.000000,0.000000,0.389115,0.039934,-0.145888
26.641459,1171,0.000000,0.000000,0.000000,0.366333,0.054471,-0.150816
26.664008,1172,0.000000,0.000000,0.000000,0.335381,0.066433,-0.135746
26.685948,1173,0.000000,0.000000,0.000000,0.304048,0.073924,-0.125106
26.708594,1174,0.000000,0.000000,0.000000,0.276484,0.071459,-0.118256
26.731357,1175,0.000000,0.000000,0.000000,0.260226,0.064991,-0.109794
26.752520,1176,0.000000,0.000000,0.000000,0.260393,0.059086,-0.111647
26.774856,1177,0.000000,0.000000,0.000000,0.241184,0.050975,-0.100862
26.797119,1178,0.000000,0.000000,0.000000,0.197305,0.051386,-0.075661
26.819480,1179,0.000000,0.000000,0.000000,0.140701,0.043385,-0.060216
26.841877,1180,0.000000,0.000000,0.000000,0.073821,0.030063,-0.043404
26.864191,1181,0.000000,0.000000,0.000000,0.001673,0.010061,-0.012475
26.886147,1182,0.000000,0.000000,0.000000,-0.059059,-0.010179,0.012477
26.908420,1183,0.000000,0.000000,0.000000,-0.107847,-0.029319,0.019343
26.931726,1184,0.000000,0.000000,0.000000,-0.145485,-0.047839,0.020021
26.952498,1185,0.000000,0.000000,0.000000,-0.161875,-0.054475,0.024582
26.975046,1186,0.000000,0.000000,0.000000,-0.156959,-0.058081,0.022938
26.997594,1187,0.000000,0.000000,0.000000,-0.144663,-0.056194,0.021496
27.019669,1188,0.000000,0.000000,0.000000,-0.124180,-0.054012,0.025491
27.041871,1189,0.000000,0.000000,0.000000,-0.097189,-0.047128,0.026910
27.064325,1190,0.000000,0.000000,0.000000,-0.061596,-0.036719,0.015538
27.134781,1191,0.000000,0.000000,0.000000,-0.027919,-0.030905,0.018712
27.152761,1192,0.000000,0.000000,0.000000,-0.033136,-0.019187,0.007616
27.175117,1193,0.000000,0.000000,0.000000,-0.052496,0.000399,-0.008507
27.197258,1194,0.000000,0.000000,0.000000,-0.062132,0.019441,-0.025528
27.220015,1195,0.000000,0.000000,0.000000,-0.058004,0.039437,-0.033639
27.241755,1196,0.000000,0.000000,0.000000,-0.052268,0.054351,-0.036423
27.264345,1197,0.000000,0.000000,0.000000,-0.046288,0.073115,-0.037599
27.286606,1198,0.000000,0.000000,0.000000,-0.033470,0.086142,-0.040602
27.308475,1199,0.000000,0.000000,0.000000,-0.015807,0.094010,-0.032816
27.330838,1200,0.000000,0.000000,0.000000,-0.002202,0.092534,-0.027379
27.352945,1201,0.000000,0.000000,0.000000,0.007958,0.088029,-0.032914
27.375586,1202,0.000000,0.000000,0.000000,0.010968,0.084422,-0.045100
27.397686,1203,0.000000,0.000000,0.000000,0.017337,0.076966,-0.068745
27.420220,1204,0.000000,0.000000,0.000000,0.032805,0.074968,-0.089830
27.441866,1205,0.000000,0.000000,0.000000,0.047603,0.070297,-0.078322
27.464426,1206,0.000000,0.000000,0.000000,0.045577,0.061531,-0.049726
27.486422,1207,0.000000,0.000000,0.000000,0.037843,0.051533,-0.045825
27.508523,1208,0.000000,0.000000,0.000000,0.022681,0.042600,-0.049593
27.531501,1209,0.000000,0.000000,0.000000,0.010313,0.039815,-0.043478
27.553093,1210,0.000000,0.000000,0.000000,0.011263,0.031050,-0.041673
27.575389,1211,0.000000,0.000000,0.000000,0.000415,0.018510,-0.027088
27.597626,1212,0.000000,0.000000,0.000000,-0.013955,0.013428,-0.019331
27.620198,1213,0.000000,0.000000,0.000000,-0.022528,0.012119,-0.028111
27.642114,1214,0.000000,0.000000,0.000000,-0.026593,0.017856,-0.040837
27.664425,1215,0.000000,0.000000,0.000000,-0.013289,0.019743,-0.053997
27.686418,1216,0.000000,0.000000,0.000000,0.018485,0.022193,-0.062842
27.708667,1217,0.000000,0.000000,0.000000,0.037878,0.022604,-0.054697
27.730766,1218,0.000000,0.000000,0.000000,0.048120,0.022528,-0.052699
27.753354,1219,0.000000,0.000000,0.000000,0.050118,0.022117,-0.063184
27.775224,1220,0.000000,0.000000,0.000000,0.053313,0.026454,-0.056381
27.797667,1221,0.000000,0.000000,0.000000,0.049452,0.020230,-0.029749
27.819961,1222,0.000000,0.000000,0.000000,0.035459,0.008512,-0.008721
27.841946,1223,0.000000,0.000000,0.000000,0.024939,-0.001653,-0.003638
27.864156,1224,0.000000,0.000000,0.000000,0.026715,-0.008121,0.010211
27.886670,1225,0.000000,0.000000,0.000000,0.041184,-0.013070,0.020319
27.908679,1226,0.000000,0.000000,0.000000,0.044101,-0.017818,0.030236
27.930965,1227,0.000000,0.000000,0.000000,0.019489,-0.015821,0.040826
27.953160,1228,0.000000,0.000000,0.000000,-0.018362,-0.008775,0.087033
27.975496,1229,0.000000,0.000000,0.000000,-0.054958,0.010921,0.151614
27.997794,1230,0.000000,0.000000,0.000000,-0.040677,0.028132,0.176770
28.020408,1231,0.000000,0.000000,0.000000,0.022533,0.033669,0.183887
28.042077,1232,0.000000,0.000000,0.000000,0.088740,0.030640,0.195025
28.064593,1233,0.000000,0.000000,0.000000,0.146953,0.032493,0.191541
28.124909,1234,0.000000,0.000000,0.000000,0.206207,0.033610,0.164736
28.143420,1235,0.000000,0.000000,0.000000,0.326280,0.048738,0.093392
28.164273,1236,0.000000,0.000000,0.000000,0.355187,0.055541,0.079445
28.187729,1237,0.000000,0.000000,0.000000,0.346462,0.074010,0.082085
28.208763,1238,0.000000,0.000000,0.000000,0.269075,0.115583,0.082170
28.231145,1239,0.000000,0.000000,0.000000,0.227454,0.186990,0.077147
28.253523,1240,0.000000,0.000000,0.000000,0.298761,0.235582,0.052002
28.275535,1241,0.000000,0.000000,0.000000,0.380075,0.259805,0.058550
28.297710,1242,0.000000,0.000000,0.000000,0.424210,0.274719,0.080076
28.320874,1243,0.000000,0.000000,0.000000,0.448519,0.283074,0.091776
28.341446,1244,0.000000,0.000000,0.000000,0.448652,0.286026,0.103956
28.363930,1245,0.000000,0.000000,0.000000,0.409858,0.288516,0.108206
28.386134,1246,0.000000,0.000000,0.000000,0.364168,0.285726,0.091227
28.408367,1247,0.000000,0.000000,0.000000,0.363033,0.286304,0.052557
28.431435,1248,0.000000,0.000000,0.000000,0.369791,0.291874,0.015627
28.453137,1249,0.000000,0.000000,0.000000,0.346743,0.299087,-0.014179
28.475087,1250,0.000000,0.000000,0.000000,0.310368,0.301218,-0.047103
28.497581,1251,0.000000,0.000000,0.000000,0.252989,0.297067,-0.078528
28.519844,1252,0.000000,0.000000,0.000000,0.212350,0.294937,-0.094595
28.542220,1253,0.000000,0.000000,0.000000,0.194954,0.291497,-0.115195
28.564394,1254,0.000000,0.000000,0.000000,0.162041,0.290132,-0.126732
28.586503,1255,0.000000,0.000000,0.000000,0.106015,0.281610,-0.115213
28.607960,1256,0.000000,0.000000,0.000000,0.078063,0.266864,-0.088447
28.631354,1257,0.000000,0.000000,0.000000,0.101439,0.246868,-0.071258
28.652700,1258,0.000000,0.000000,0.000000,0.127719,0.223322,-0.081412
28.674870,1259,0.000000,0.000000,0.000000,0.112452,0.209307,-0.099688
28.697324,1260,0.000000,0.000000,0.000000,0.066430,0.198822,-0.120507
28.719502,1261,0.000000,0.000000,0.000000,0.042229,0.186972,-0.119470
28.743149,1262,0.000000,0.000000,0.000000,0.045591,0.166378,-0.119116
28.764265,1263,0.000000,0.000000,0.000000,0.064765,0.151541,-0.115249
28.787310,1264,0.000000,0.000000,0.000000,0.091495,0.137692,-0.084628
28.808474,1265,0.000000,0.000000,0.000000,0.106020,0.117997,-0.060469
28.831339,1266,0.000000,0.000000,0.000000,0.103966,0.101029,-0.059084
28.852982,1267,0.000000,0.000000,0.000000,0.079497,0.091365,-0.074519
28.875284,1268,0.000000,0.000000,0.000000,0.067801,0.077106,-0.061979
28.897376,1269,0.000000,0.000000,0.000000,0.062607,0.056456,-0.046899
28.922285,1270,0.000000,0.000000,0.000000,0.039802,0.039412,-0.071901
28.941410,1271,0.000000,0.000000,0.000000,0.044895,0.038757,-0.106477
28.964723,1272,0.000000,0.000000,0.000000,0.067787,0.044084,-0.114687
28.985939,1273,0.000000,0.000000,0.000000,0.075133,0.039302,-0.101550
29.008144,1274,0.000000,0.000000,0.000000,0.072642,0.034630,-0.095646
29.030945,1275,0.000000,0.000000,0.000000,0.074442,0.039905,-0.090841
29.052681,1276,0.000000,0.000000,0.000000,0.075396,0.039823,-0.079534
29.075205,1277,0.000000,0.000000,0.000000,0.082626,0.030126,-0.060735
29.134868,1278,0.000000,0.000000,0.000000,0.087234,0.012914,-0.030797
29.152829,1279,0.000000,0.000000,0.000000,0.057897,-0.011342,-0.032962
29.175352,1280,0.000000,0.000000,0.000000,0.034982,-0.007980,-0.048021
29.197289,1281,0.000000,0.000000,0.000000,0.013860,0.001718,-0.038821
29.219457,1282,0.000000,0.000000,0.000000,0.001475,0.013193,-0.005365
29.241748,1283,0.000000,0.000000,0.000000,-0.015414,0.014912,0.020827
29.264234,1284,0.000000,0.000000,0.000000,-0.025692,0.015977,0.029476
29.286383,1285,0.000000,0.000000,0.000000,-0.025171,0.013192,0.021776
29.309507,1286,0.000000,0.000000,0.000000,-0.024108,0.002540,0.024402
29.331108,1287,0.000000,0.000000,0.000000,-0.015454,-0.012952,0.031340
29.353242,1288,0.000000,0.000000,0.000000,0.000692,-0.033268,0.035502
29.375210,1289,0.000000,0.000000,0.000000,0.009850,-0.048216,0.024497
29.397391,1290,0.000000,0.000000,0.000000,0.000667,-0.056083,0.018401
29.420251,1291,0.000000,0.000000,0.000000,-0.021541,-0.063129,0.007805
29.441977,1292,0.000000,0.000000,0.000000,-0.030082,-0.072138,-0.006211
29.464422,1293,0.000000,0.000000,0.000000,-0.025988,-0.080006,-0.004868
29.486704,1294,0.000000,0.000000,0.000000,-0.016511,-0.089350,0.003932
29.509304,1295,0.000000,0.000000,0.000000,-0.009543,-0.101068,0.004697
29.531173,1296,0.000000,0.000000,0.000000,-0.009466,-0.108114,0.007815
29.552945,1297,0.000000,0.000000,0.000000,-0.017444,-0.107703,0.016060
29.575247,1298,0.000000,0.000000,0.000000,-0.017770,-0.105161,0.009013
29.597674,1299,0.000000,0.000000,0.000000,-0.025579,-0.094265,-0.010932
29.620489,1300,0.000000,0.000000,0.000000,-0.050457,-0.083445,-0.019760
29.642049,1301,0.000000,0.000000,0.000000,-0.069256,-0.075634,-0.012692
29.664445,1302,0.000000,0.000000,0.000000,-0.086168,-0.072438,-0.011493
29.686724,1303,0.000000,0.000000,0.000000,-0.095588,-0.068831,-0.014556
29.709488,1304,0.000000,0.000000,0.000000,-0.099229,-0.066701,-0.005084
29.731353,1305,0.000000,0.000000,0.000000,-0.106010,-0.079484,0.020974
29.753075,1306,0.000000,0.000000,0.000000,-0.114099,-0.098659,0.039687
29.775211,1307,0.000000,0.000000,0.000000,-0.111481,-0.116357,0.041167
29.798161,1308,0.000000,0.000000,0.000000,-0.115332,-0.134501,0.038163
29.820088,1309,0.000000,0.000000,0.000000,-0.126361,-0.152200,0.022838
29.842167,1310,0.000000,0.000000,0.000000,-0.117451,-0.172439,0.009789
29.864526,1311,0.000000,0.000000,0.000000,-0.106195,-0.191858,0.005094
29.886870,1312,0.000000,0.000000,0.000000,-0.108275,-0.212543,0.011110
29.910400,1313,0.000000,0.000000,0.000000,-0.106011,-0.233026,0.024004
29.932458,1314,0.000000,0.000000,0.000000,-0.108663,-0.247528,0.028843
29.952678,1315,0.000000,0.000000,0.000000,-0.142387,-0.270066,0.065496
29.975482,1316,0.000000,0.000000,0.000000,-0.221443,-0.315512,0.155152
29.997549,1317,0.000000,0.000000,0.000000,-0.272582,-0.361100,0.188634
30.019999,1318,0.000000,0.000000,0.000000,-0.236780,-0.371920,0.145649
30.042064,1319,0.000000,0.000000,0.000000,-0.159138,-0.369656,0.115023
30.064274,1320,0.000000,0.000000,0.000000,-0.101452,-0.380419,0.121135
30.086730,1321,0.000000,0.000000,0.000000,-0.084309,-0.392548,0.138157
30.135418,1322,0.000000,0.000000,0.000000,-0.094718,-0.399015,0.143535
30.153350,1323,0.000000,0.000000,0.000000,-0.229186,-0.402269,0.117773
30.171551,1324,0.000000,0.000000,0.000000,-0.224781,-0.393747,0.099663
30.193468,1325,0.000000,0.000000,0.000000,-0.204507,-0.379321,0.089455
30.216970,1326,0.000000,0.000000,0.000000,-0.176711,-0.373751,0.118328
30.238924,1327,0.000000,0.000000,0.000000,-0.153531,-0.376125,0.155589
30.261295,1328,0.000000,0.000000,0.000000,-0.131415,-0.374573,0.190123
30.283622,1329,0.000000,0.000000,0.000000,-0.109977,-0.375060,0.198923
30.307292,1330,0.000000,0.000000,0.000000,-0.087484,-0.358837,0.162758
30.328423,1331,0.000000,0.000000,0.000000,-0.073758,-0.332860,0.119250
30.350887,1332,0.000000,0.000000,0.000000,-0.076565,-0.316227,0.102339
30.373187,1333,0.000000,0.000000,0.000000,-0.077353,-0.308526,0.090865
30.395568,1334,0.000000,0.000000,0.000000,-0.078770,-0.300659,0.074886
30.417749,1335,0.000000,0.000000,0.000000,-0.090026,-0.307872,0.078383
30.439990,1336,0.000000,0.000000,0.000000,-0.089483,-0.393782,0.090634
30.462761,1337,0.000000,0.000000,0.000000,-0.050834,-0.518972,0.102873
30.484582,1338,0.000000,0.000000,0.000000,-0.003996,-0.607987,0.127542
30.507886,1339,0.000000,0.000000,0.000000,0.004699,-0.702418,0.173637
30.529242,1340,0.000000,0.000000,0.000000,0.012393,-0.785544,0.214265
30.551274,1341,0.000000,0.000000,0.000000,0.048333,-0.824901,0.228732
30.573647,1342,0.000000,0.000000,0.000000,0.055054,-0.848614,0.229203
30.596582,1343,0.000000,0.000000,0.000000,0.064641,-0.896308,0.229626
30.618099,1344,0.000000,0.000000,0.000000,0.096791,-0.917312,0.232829
30.640284,1345,0.000000,0.000000,0.000000,0.137958,-0.896251,0.224697
30.662990,1346,0.000000,0.000000,0.000000,0.162681,-0.842576,0.209592
30.684799,1347,0.000000,0.000000,0.000000,0.124198,-0.818953,0.195236
30.707356,1348,0.000000,0.000000,0.000000,0.082820,-0.844763,0.188625
30.729899,1349,0.000000,0.000000,0.000000,0.099650,-0.820505,0.172161
30.751474,1350,0.000000,0.000000,0.000000,0.127307,-0.742707,0.139516
30.774103,1351,0.000000,0.000000,0.000000,0.138592,-0.653357,0.116777
30.796406,1352,0.000000,0.000000,0.000000,0.126764,-0.595067,0.128568
30.818333,1353,0.000000,0.000000,0.000000,0.119962,-0.554830,0.127903
30.840459,1354,0.000000,0.000000,0.000000,0.110375,-0.529563,0.119818
30.862920,1355,0.000000,0.000000,0.000000,0.078979,-0.567535,0.145555
30.884911,1356,0.000000,0.000000,0.000000,0.039415,-0.649560,0.201194
30.907280,1357,0.000000,0.000000,0.000000,0.022760,-0.704576,0.175030
30.929911,1358,0.000000,0.000000,0.000000,0.045646,-0.704484,0.120195
30.951466,1359,0.000000,0.000000,0.000000,0.080233,-0.674002,0.093761
30.973972,1360,0.000000,0.000000,0.000000,0.094921,-0.633521,0.109135
30.996325,1361,0.000000,0.000000,0.000000,0.083144,-0.593585,0.125029
31.018474,1362,0.000000,0.000000,0.000000,0.080140,-0.533484,0.123300
31.040602,1363,0.000000,0.000000,0.000000,0.085274,-0.451181,0.124985
31.063012,1364,0.000000,0.000000,0.000000,0.052820,-0.369866,0.126357
31.085017,1365,0.000000,0.000000,0.000000,-0.005636,-0.315914,0.125327
31.144192,1366,0.000000,0.000000,0.000000,-0.033445,-0.258278,0.130820
31.164471,1367,0.000000,0.000000,0.000000,-0.094301,-0.153660,0.103839
31.184358,1368,0.000000,0.000000,0.000000,-0.091483,-0.137758,0.093076
31.206964,1369,0.000000,0.000000,0.000000,-0.069925,-0.098638,0.068494
31.229627,1370,0.000000,0.000000,0.000000,-0.062736,-0.078159,0.052431
31.251133,1371,0.000000,0.000000,0.000000,-0.051784,-0.089744,0.063888
31.273527,1372,0.000000,0.000000,0.000000,-0.001226,-0.102116,0.075235
31.295916,1373,0.000000,0.000000,0.000000,0.044440,-0.095835,0.070986
31.318837,1374,0.000000,0.000000,0.000000,0.031135,-0.107310,0.074315
31.340417,1375,0.000000,0.000000,0.000000,0.006354,-0.123699,0.082150
31.363262,1376,0.000000,0.000000,0.000000,0.011024,-0.115420,0.078711
31.384874,1377,0.000000,0.000000,0.000000,0.001169,-0.093426,0.059016
31.407847,1378,0.000000,0.000000,0.000000,-0.033367,-0.063077,0.069021
31.430667,1379,0.000000,0.000000,0.000000,-0.064617,-0.041528,0.065897
31.451439,1380,0.000000,0.000000,0.000000,-0.061989,-0.014729,0.036371
31.473627,1381,0.000000,0.000000,0.000000,-0.037555,0.019522,0.009607
31.496731,1382,0.000000,0.000000,0.000000,-0.004146,0.054214,-0.006505
31.518969,1383,0.000000,0.000000,0.000000,0.012075,0.073145,-0.007326
31.540420,1384,0.000000,0.000000,0.000000,0.021683,0.078715,0.017587
31.563021,1385,0.000000,0.000000,0.000000,0.050166,0.073279,0.037729
31.585067,1386,0.000000,0.000000,0.000000,0.088237,0.069429,0.048059
31.607209,1387,0.000000,0.000000,0.000000,0.125410,0.058743,0.073998
31.630421,1388,0.000000,0.000000,0.000000,0.222781,0.041832,0.104455
31.651670,1389,0.000000,0.000000,0.000000,0.404275,0.014158,0.166868
31.673966,1390,0.000000,0.000000,0.000000,0.610814,-0.039416,0.244987
31.696718,1391,0.000000,0.000000,0.000000,0.793107,-0.122275,0.292710
31.719148,1392,0.000000,0.000000,0.000000,0.901596,-0.213042,0.306194
31.740650,1393,0.000000,0.000000,0.000000,0.909251,-0.281740,0.269630
31.763122,1394,0.000000,0.000000,0.000000,0.867717,-0.356342,0.229428
31.785174,1395,0.000000,0.000000,0.000000,0.854158,-0.404523,0.185979
31.807471,1396,0.000000,0.000000,0.000000,0.823497,-0.412466,0.129948
31.829892,1397,0.000000,0.000000,0.000000,0.789721,-0.377446,0.100898
31.851737,1398,0.000000,0.000000,0.000000,0.788489,-0.308909,0.096717
31.874014,1399,0.000000,0.000000,0.000000,0.752601,-0.226445,0.085277
31.896667,1400,0.000000,0.000000,0.000000,0.652381,-0.169926,0.072182
31.920245,1401,0.000000,0.000000,0.000000,0.526149,-0.137772,0.094709
31.940452,1402,0.000000,0.000000,0.000000,0.485559,-0.097912,0.097340
31.962754,1403,0.000000,0.000000,0.000000,0.468903,-0.030279,0.076376
31.984822,1404,0.000000,0.000000,0.000000,0.364318,0.041482,0.038502
32.007097,1405,0.000000,0.000000,0.000000,0.247996,0.084858,0.008537
32.029637,1406,0.000000,0.000000,0.000000,0.198751,0.118570,-0.003580
32.051758,1407,0.000000,0.000000,0.000000,0.207175,0.151460,-0.019668
32.073887,1408,0.000000,0.000000,0.000000,0.214599,0.176859,-0.016338
32.097126,1409,0.000000,0.000000,0.000000,0.139088,0.170335,0.018417
32.148411,1410,0.000000,0.000000,0.000000,0.098464,0.159028,0.035039
32.174001,1411,0.000000,0.000000,0.000000,-0.004842,0.104944,0.037670
32.196581,1412,0.000000,0.000000,0.000000,-0.043375,0.075117,0.014200
32.218749,1413,0.000000,0.000000,0.000000,-0.067580,0.051028,0.012294
32.240872,1414,0.000000,0.000000,0.000000,-0.115384,0.046633,0.017249
32.263539,1415,0.000000,0.000000,0.000000,-0.142392,0.055977,0.006290
32.285254,1416,0.000000,0.000000,0.000000,-0.141072,0.074664,-0.026489
32.308734,1417,0.000000,0.000000,0.000000,-0.135456,0.102605,-0.068145
32.330428,1418,0.000000,0.000000,0.000000,-0.136677,0.122956,-0.109037
32.351756,1419,0.000000,0.000000,0.000000,-0.166117,0.142299,-0.131419
32.374295,1420,0.000000,0.000000,0.000000,-0.209902,0.181824,-0.130945
32.396879,1421,0.000000,0.000000,0.000000,-0.240251,0.227330,-0.123529
32.418975,1422,0.000000,0.000000,0.000000,-0.255153,0.271173,-0.157385
32.441013,1423,0.000000,0.000000,0.000000,-0.252490,0.329142,-0.199562
32.463586,1424,0.000000,0.000000,0.000000,-0.260757,0.416848,-0.229134
32.485205,1425,0.000000,0.000000,0.000000,-0.279144,0.505954,-0.224810
32.508623,1426,0.000000,0.000000,0.000000,-0.290173,0.595170,-0.238623
32.530294,1427,0.000000,0.000000,0.000000,-0.297075,0.688368,-0.262945
32.551821,1428,0.000000,0.000000,0.000000,-0.317649,0.796649,-0.263246
32.574203,1429,0.000000,0.000000,0.000000,-0.346920,0.924791,-0.295037
32.596965,1430,0.000000,0.000000,0.000000,-0.346243,1.050964,-0.361599
32.618850,1431,0.000000,0.000000,0.000000,-0.322615,1.162759,-0.446640
32.641025,1432,0.000000,0.000000,0.000000,-0.338483,1.253092,-0.546602
32.663595,1433,0.000000,0.000000,0.000000,-0.383416,1.320070,-0.632627
32.685433,1434,0.000000,0.000000,0.000000,-0.389374,1.381034,-0.695733
32.708726,1435,0.000000,0.000000,0.000000,-0.361884,1.429325,-0.732120
32.729978,1436,0.000000,0.000000,0.000000,-0.340731,1.447770,-0.772481
32.752116,1437,0.000000,0.000000,0.000000,-0.331218,1.450554,-0.800311
32.774504,1438,0.000000,0.000000,0.000000,-0.328041,1.432412,-0.813447
32.796976,1439,0.000000,0.000000,0.000000,-0.309736,1.397258,-0.829248
32.819255,1440,0.000000,0.000000,0.000000,-0.286324,1.350352,-0.842900
32.841030,1441,0.000000,0.000000,0.000000,-0.277381,1.303858,-0.871292
32.863936,1442,0.000000,0.000000,0.000000,-0.275131,1.243439,-0.917991
32.885521,1443,0.000000,0.000000,0.000000,-0.273158,1.174087,-0.945156
32.908728,1444,0.000000,0.000000,0.000000,-0.291715,1.086869,-1.024686
32.931093,1445,0.000000,0.000000,0.000000,-0.331283,0.997462,-1.142595
32.952021,1446,0.000000,0.000000,0.000000,-0.354565,0.896119,-1.196878
32.974191,1447,0.000000,0.000000,0.000000,-0.342487,0.773745,-1.206577
32.996877,1448,0.000000,0.000000,0.000000,-0.308156,0.655935,-1.200018
33.018923,1449,0.000000,0.000000,0.000000,-0.256746,0.589778,-1.203984
33.041531,1450,0.000000,0.000000,0.000000,-0.219605,0.577708,-1.177993
33.064078,1451,0.000000,0.000000,0.000000,-0.208020,0.565338,-1.101367
33.081643,1452,0.000000,0.000000,0.000000,-0.202706,0.557303,-1.067091
33.099906,1453,0.000000,0.000000,0.000000,-0.177275,0.565172,-0.989323
33.150344,1454,0.000000,0.000000,0.000000,-0.175289,0.588197,-0.963866
33.174220,1455,0.000000,0.000000,0.000000,-0.317018,0.700716,-0.773490
33.196872,1456,0.000000,0.000000,0.000000,-0.306718,0.674328,-0.716096
33.218811,1457,0.000000,0.000000,0.000000,-0.288623,0.589484,-0.680131
33.241144,1458,0.000000,0.000000,0.000000,-0.293023,0.450443,-0.687452
33.263760,1459,0.000000,0.000000,0.000000,-0.303947,0.280921,-0.706710
33.285575,1460,0.000000,0.000000,0.000000,-0.250069,0.133770,-0.660967
33.307997,1461,0.000000,0.000000,0.000000,-0.165909,-0.026931,-0.591977
33.330390,1462,0.000000,0.000000,0.000000,-0.107532,-0.236557,-0.537960
33.352252,1463,0.000000,0.000000,0.000000,-0.087719,-0.441475,-0.498532
33.374436,1464,0.000000,0.000000,0.000000,-0.106935,-0.584688,-0.490346
33.396954,1465,0.000000,0.000000,0.000000,-0.146078,-0.693868,-0.501431
33.419004,1466,0.000000,0.000000,0.000000,-0.191334,-0.801738,-0.532722
33.441379,1467,0.000000,0.000000,0.000000,-0.232295,-0.864835,-0.596392
33.463936,1468,0.000000,0.000000,0.000000,-0.309603,-0.876387,-0.694106
33.485667,1469,0.000000,0.000000,0.000000,-0.353560,-0.843909,-0.769206
33.508984,1470,0.000000,0.000000,0.000000,-0.398586,-0.760132,-0.856823
33.530393,1471,0.000000,0.000000,0.000000,-0.432657,-0.682803,-0.928873
33.552452,1472,0.000000,0.000000,0.000000,-0.383972,-0.617244,-0.871911
33.575241,1473,0.000000,0.000000,0.000000,-0.313427,-0.557425,-0.689591
33.597293,1474,0.000000,0.000000,0.000000,-0.242189,-0.487829,-0.518900
33.619070,1475,0.000000,0.000000,0.000000,-0.162289,-0.426044,-0.415927
33.641482,1476,0.000000,0.000000,0.000000,-0.104011,-0.395320,-0.330637
33.664017,1477,0.000000,0.000000,0.000000,-0.134002,-0.356694,-0.197501
33.686572,1478,0.000000,0.000000,0.000000,-0.161982,-0.266113,-0.102582
33.708486,1479,0.000000,0.000000,0.000000,-0.146971,-0.179718,-0.077472
33.730517,1480,0.000000,0.000000,0.000000,-0.108308,-0.129408,-0.041254
33.752467,1481,0.000000,0.000000,0.000000,-0.046103,-0.124082,0.019268
33.774954,1482,0.000000,0.000000,0.000000,-0.000988,-0.139929,0.035368
33.797336,1483,0.000000,0.000000,0.000000,-0.032861,-0.147386,0.000800
33.819529,1484,0.000000,0.000000,0.000000,-0.094659,-0.150305,-0.060124
33.841605,1485,0.000000,0.000000,0.000000,-0.098974,-0.150062,-0.124335
33.864022,1486,0.000000,0.000000,0.000000,-0.057197,-0.131786,-0.169476
33.885958,1487,0.000000,0.000000,0.000000,-0.018814,-0.149032,-0.179347
33.908436,1488,0.000000,0.000000,0.000000,0.041918,-0.181512,-0.109545
33.930620,1489,0.000000,0.000000,0.000000,0.099696,-0.165366,-0.050700
33.952801,1490,0.000000,0.000000,0.000000,0.102088,-0.130868,-0.036007
33.974890,1491,0.000000,0.000000,0.000000,0.035292,-0.114368,-0.008577
33.997337,1492,0.000000,0.000000,0.000000,-0.021398,-0.132778,0.030548
34.019502,1493,0.000000,0.000000,0.000000,-0.027304,-0.144689,0.060786
34.041691,1494,0.000000,0.000000,0.000000,-0.011798,-0.125567,0.092576
34.064434,1495,0.000000,0.000000,0.000000,-0.026577,-0.095573,0.094040
34.087649,1496,0.000000,0.000000,0.000000,-0.066778,-0.100656,0.077673
34.108394,1497,0.000000,0.000000,0.000000,-0.073991,-0.113607,0.075299
34.158701,1498,0.000000,0.000000,0.000000,-0.073220,-0.113029,0.073244
34.186165,1499,0.000000,0.000000,0.000000,-0.034030,-0.100004,0.098225
34.208459,1500,0.000000,0.000000,0.000000,-0.041220,-0.098696,0.113348
34.231276,1501,0.000000,0.000000,0.000000,-0.054524,-0.082851,0.121482
34.252814,1502,0.000000,0.000000,0.000000,-0.038545,-0.065229,0.129349
34.275001,1503,0.000000,0.000000,0.000000,-0.016973,-0.059005,0.153422
34.297389,1504,0.000000,0.000000,0.000000,0.003557,-0.061491,0.198602
34.320374,1505,0.000000,0.000000,0.000000,0.035370,-0.057641,0.227752
34.341663,1506,0.000000,0.000000,0.000000,0.061643,-0.063957,0.233634
34.364672,1507,0.000000,0.000000,0.000000,0.075219,-0.071658,0.256526
34.386606,1508,0.000000,0.000000,0.000000,0.137874,-0.088158,0.280849
34.408536,1509,0.000000,0.000000,0.000000,0.208528,-0.127608,0.303277
34.430940,1510,0.000000,0.000000,0.000000,0.186534,-0.218754,0.390697
34.453097,1511,0.000000,0.000000,0.000000,0.130191,-0.188649,0.468405
34.475084,1512,0.000000,0.000000,0.000000,0.141690,-0.100533,0.461668
34.497560,1513,0.000000,0.000000,0.000000,0.121866,-0.097749,0.418126
34.520541,1514,0.000000,0.000000,0.000000,0.067212,-0.094109,0.406916
34.541898,1515,0.000000,0.000000,0.000000,0.082530,-0.068877,0.448711
34.564394,1516,0.000000,0.000000,0.000000,0.154435,-0.077344,0.496882
34.586368,1517,0.000000,0.000000,0.000000,0.191592,-0.099228,0.545763
34.608513,1518,0.000000,0.000000,0.000000,0.166338,-0.094800,0.578608
34.631332,1519,0.000000,0.000000,0.000000,0.098051,-0.073141,0.577034
34.653741,1520,0.000000,0.000000,0.000000,0.042402,-0.064586,0.601137
34.675104,1521,0.000000,0.000000,0.000000,0.032743,-0.064419,0.645282
34.697641,1522,0.000000,0.000000,0.000000,0.035788,-0.062046,0.709407
34.719750,1523,0.000000,0.000000,0.000000,0.027261,-0.042050,0.781021
34.742034,1524,0.000000,0.000000,0.000000,-0.016670,-0.015551,0.808101
34.764183,1525,0.000000,0.000000,0.000000,-0.059177,0.013731,0.825158
34.786863,1526,0.000000,0.000000,0.000000,-0.043997,0.042736,0.855195
34.808578,1527,0.000000,0.000000,0.000000,-0.013342,0.044622,0.903854
34.831217,1528,0.000000,0.000000,0.000000,-0.016479,0.025691,0.969978
34.853034,1529,0.000000,0.000000,0.000000,-0.032691,0.017746,0.939873
34.875220,1530,0.000000,0.000000,0.000000,-0.023554,0.051667,0.815349
34.897682,1531,0.000000,0.000000,0.000000,-0.049502,0.094387,0.706194
34.920777,1532,0.000000,0.000000,0.000000,-0.088362,0.120942,0.686243
34.942136,1533,0.000000,0.000000,0.000000,-0.053337,0.112084,0.684150
34.964274,1534,0.000000,0.000000,0.000000,0.026319,0.077718,0.662653
34.987174,1535,0.000000,0.000000,0.000000,0.065589,0.033855,0.686169
35.008729,1536,0.000000,0.000000,0.000000,0.023088,0.004513,0.752859
35.031575,1537,0.000000,0.000000,0.000000,-0.022320,-0.022119,0.781796
35.053576,1538,0.000000,0.000000,0.000000,-0.060183,-0.049330,0.778953
35.075519,1539,0.000000,0.000000,0.000000,-0.194633,-0.024351,0.852502
35.097746,1540,0.000000,0.000000,0.000000,-0.268909,0.023864,0.889946
35.160407,1541,0.000000,0.000000,0.000000,-0.184565,0.046772,0.835474
35.186928,1542,0.000000,0.000000,0.000000,-0.016481,0.083857,0.427858
35.209270,1543,0.000000,0.000000,0.000000,-0.117502,0.139863,0.351294
35.231021,1544,0.000000,0.000000,0.000000,-0.191176,0.200392,0.277305
35.253467,1545,0.000000,0.000000,0.000000,-0.178411,0.236854,0.180478
35.275343,1546,0.000000,0.000000,0.000000,-0.159330,0.252999,0.128483
35.297644,1547,0.000000,0.000000,0.000000,-0.165833,0.263651,0.133533
35.320221,1548,0.000000,0.000000,0.000000,-0.159876,0.264549,0.116348
35.342194,1549,0.000000,0.000000,0.000000,-0.110360,0.272549,0.064608
35.364878,1550,0.000000,0.000000,0.000000,-0.023572,0.271617,0.036199
35.387006,1551,0.000000,0.000000,0.000000,0.052276,0.257844,0.068617
35.408713,1552,0.000000,0.000000,0.000000,0.080627,0.243231,0.074494
35.431316,1553,0.000000,0.000000,0.000000,0.080042,0.238892,0.022409
35.453326,1554,0.000000,0.000000,0.000000,0.068780,0.267898,0.018967
35.475352,1555,0.000000,0.000000,0.000000,0.066949,0.287837,0.116499
35.497766,1556,0.000000,0.000000,0.000000,0.053969,0.294806,0.217312
35.521079,1557,0.000000,0.000000,0.000000,0.017675,0.317941,0.267056
35.542200,1558,0.000000,0.000000,0.000000,-0.023298,0.332721,0.258524
35.564548,1559,0.000000,0.000000,0.000000,-0.057098,0.338213,0.203205
35.586770,1560,0.000000,0.000000,0.000000,-0.083793,0.378885,0.142555
35.608909,1561,0.000000,0.000000,0.000000,-0.094772,0.461927,0.131590
35.631203,1562,0.000000,0.000000,0.000000,-0.057384,0.532889,0.167613
35.653678,1563,0.000000,0.000000,0.000000,0.028003,0.555669,0.180578
35.675483,1564,0.000000,0.000000,0.000000,0.101923,0.580546,0.160545
35.696723,1565,0.000000,0.000000,0.000000,0.143629,0.631678,0.156729
35.719569,1566,0.000000,0.000000,0.000000,0.167668,0.670305,0.157217
35.741166,1567,0.000000,0.000000,0.000000,0.172206,0.661749,0.145367
35.763508,1568,0.000000,0.000000,0.000000,0.138361,0.639789,0.139653
35.785836,1569,0.000000,0.000000,0.000000,0.100967,0.603159,0.149374
35.808046,1570,0.000000,0.000000,0.000000,0.092855,0.552436,0.149762
35.831082,1571,0.000000,0.000000,0.000000,0.066577,0.513919,0.132139
35.852907,1572,0.000000,0.000000,0.000000,-0.002121,0.523674,0.126723
35.874790,1573,0.000000,0.000000,0.000000,-0.030062,0.513709,0.123409
35.897344,1574,0.000000,0.000000,0.000000,0.008166,0.457349,0.089662
35.919823,1575,0.000000,0.000000,0.000000,0.036805,0.431538,0.053732
35.941753,1576,0.000000,0.000000,0.000000,0.068219,0.435388,0.050027
35.963908,1577,0.000000,0.000000,0.000000,0.114580,0.424213,0.033514
35.986019,1578,0.000000,0.000000,0.000000,0.135863,0.411019,0.014518
36.008540,1579,0.000000,0.000000,0.000000,0.131990,0.390089,-0.002417
36.030872,1580,0.000000,0.000000,0.000000,0.109434,0.351983,-0.027086
36.053162,1581,0.000000,0.000000,0.000000,0.081222,0.312491,-0.053307
36.075131,1582,0.000000,0.000000,0.000000,0.076340,0.272387,-0.068488
36.097862,1583,0.000000,0.000000,0.000000,0.086727,0.240018,-0.086094
36.120119,1584,0.000000,0.000000,0.000000,0.081100,0.210850,-0.099503
36.169668,1585,0.000000,0.000000,0.000000,0.075119,0.196718,-0.099092
36.197403,1586,0.000000,0.000000,0.000000,0.012594,0.136985,-0.104077
36.219709,1587,0.000000,0.000000,0.000000,-0.022109,0.133001,-0.074252
36.241875,1588,0.000000,0.000000,0.000000,-0.058988,0.111117,-0.043397
36.264245,1589,0.000000,0.000000,0.000000,-0.095468,0.074243,-0.024936
36.286411,1590,0.000000,0.000000,0.000000,-0.113688,0.035205,-0.013351
36.308832,1591,0.000000,0.000000,0.000000,-0.102625,-0.004621,-0.012770
36.331016,1592,0.000000,0.000000,0.000000,-0.075634,-0.043903,-0.012481
36.352818,1593,0.000000,0.000000,0.000000,-0.047909,-0.078590,-0.026157
36.375323,1594,0.000000,0.000000,0.000000,-0.036834,-0.104324,-0.053674
36.397461,1595,0.000000,0.000000,0.000000,-0.038334,-0.113334,-0.075223
36.419890,1596,0.000000,0.000000,0.000000,-0.034635,-0.110960,-0.100846
36.441963,1597,0.000000,0.000000,0.000000,-0.028970,-0.091863,-0.141980
36.465484,1598,0.000000,0.000000,0.000000,-0.042320,-0.025874,-0.173983
36.486452,1599,0.000000,0.000000,0.000000,-0.068205,0.067249,-0.204732
36.508757,1600,0.000000,0.000000,0.000000,-0.136765,0.215580,-0.233565
36.531034,1601,0.000000,0.000000,0.000000,-0.198673,0.372967,-0.199760
36.553124,1602,0.000000,0.000000,0.000000,-0.226274,0.469638,-0.073237
36.575487,1603,0.000000,0.000000,0.000000,-0.225405,0.493728,0.027951
36.597731,1604,0.000000,0.000000,0.000000,-0.201027,0.502249,0.071904
36.619842,1605,0.000000,0.000000,0.000000,-0.179866,0.511913,0.097992
36.641937,1606,0.000000,0.000000,0.000000,-0.196390,0.544148,0.089047
36.664590,1607,0.000000,0.000000,0.000000,-0.211305,0.581599,0.079777
36.686533,1608,0.000000,0.000000,0.000000,-0.220482,0.599541,0.080479
36.709380,1609,0.000000,0.000000,0.000000,-0.241944,0.624319,0.041087
36.731057,1610,0.000000,0.000000,0.000000,-0.222858,0.633738,-0.006162
36.753263,1611,0.000000,0.000000,0.000000,-0.164014,0.591915,-0.028810
36.775579,1612,0.000000,0.000000,0.000000,-0.096370,0.515893,-0.056640
36.797830,1613,0.000000,0.000000,0.000000,-0.036052,0.438228,-0.075211
36.819967,1614,0.000000,0.000000,0.000000,0.010162,0.364782,-0.069994
36.842279,1615,0.000000,0.000000,0.000000,0.028489,0.291412,-0.086963
36.864678,1616,0.000000,0.000000,0.000000,0.040649,0.224677,-0.096184
36.886539,1617,0.000000,0.000000,0.000000,0.045152,0.137458,-0.097422
36.908975,1618,0.000000,0.000000,0.000000,0.004635,0.062535,-0.093897
36.931388,1619,0.000000,0.000000,0.000000,-0.039186,0.026264,-0.079453
36.953730,1620,0.000000,0.000000,0.000000,-0.048474,-0.009007,-0.067300
36.975474,1621,0.000000,0.000000,0.000000,-0.068882,-0.057523,-0.070142
36.997806,1622,0.000000,0.000000,0.000000,-0.134518,-0.084232,-0.084077
37.019998,1623,0.000000,0.000000,0.000000,-0.183521,-0.073545,-0.085213
37.042315,1624,0.000000,0.000000,0.000000,-0.185242,-0.049456,-0.087539
37.065495,1625,0.000000,0.000000,0.000000,-0.195558,0.009166,-0.118032
37.087312,1626,0.000000,0.000000,0.000000,-0.215979,0.101300,-0.148781
37.108587,1627,0.000000,0.000000,0.000000,-0.202409,0.176389,-0.140839
37.170302,1628,0.000000,0.000000,0.000000,-0.170186,0.199413,-0.115214
37.197458,1629,0.000000,0.000000,0.000000,-0.061264,0.085903,-0.068841
37.219991,1630,0.000000,0.000000,0.000000,-0.040880,-0.012623,-0.085954
37.242325,1631,0.000000,0.000000,0.000000,-0.041182,-0.086648,-0.095663
37.264510,1632,0.000000,0.000000,0.000000,-0.061423,-0.158466,-0.097649
37.286566,1633,0.000000,0.000000,0.000000,-0.117094,-0.230082,-0.094320
37.308878,1634,0.000000,0.000000,0.000000,-0.163238,-0.301289,0.004074
37.331942,1635,0.000000,0.000000,0.000000,-0.228115,-0.347918,0.104652
37.353082,1636,0.000000,0.000000,0.000000,-0.212964,-0.404655,0.065302
37.375267,1637,0.000000,0.000000,0.000000,-0.135525,-0.453190,-0.012352
37.397712,1638,0.000000,0.000000,0.000000,-0.058305,-0.460271,-0.101610
37.420164,1639,0.000000,0.000000,0.000000,0.010914,-0.442850,-0.109188
37.442193,1640,0.000000,0.000000,0.000000,-0.041752,-0.377392,-0.040683
37.464696,1641,0.000000,0.000000,0.000000,-0.091896,-0.312301,0.033667
37.487130,1642,0.000000,0.000000,0.000000,-0.058318,-0.249207,0.021915
37.508774,1643,0.000000,0.000000,0.000000,0.005671,-0.195911,0.056405
37.531829,1644,0.000000,0.000000,0.000000,0.096832,-0.153335,0.205874
37.553222,1645,0.000000,0.000000,0.000000,0.102901,-0.081441,0.257448
37.575521,1646,0.000000,0.000000,0.000000,0.095034,-0.006596,0.170740
37.597809,1647,0.000000,0.000000,0.000000,0.067529,0.059074,-0.006105
37.620384,1648,0.000000,0.000000,0.000000,0.000347,0.093272,-0.143345
37.642153,1649,0.000000,0.000000,0.000000,-0.088736,0.113134,-0.127443
37.664723,1650,0.000000,0.000000,0.000000,-0.120498,0.137912,-0.064907
37.687049,1651,0.000000,0.000000,0.000000,-0.054969,0.121899,-0.036618
37.709100,1652,0.000000,0.000000,0.000000,0.067333,0.038330,0.022452
37.731325,1653,0.000000,0.000000,0.000000,0.155010,-0.018352,0.124225
37.753394,1654,0.000000,0.000000,0.000000,0.198807,-0.044162,0.179741
37.775704,1655,0.000000,0.000000,0.000000,0.202890,-0.042930,0.124341
37.798008,1656,0.000000,0.000000,0.000000,0.170399,-0.000488,0.076886
37.820727,1657,0.000000,0.000000,0.000000,0.154420,0.035598,0.074425
37.842548,1658,0.000000,0.000000,0.000000,0.143247,0.051408,-0.001654
37.864808,1659,0.000000,0.000000,0.000000,0.119956,0.077008,-0.026897
37.886959,1660,0.000000,0.000000,0.000000,0.111578,0.079549,0.034200
37.909221,1661,0.000000,0.000000,0.000000,0.111382,0.048865,-0.034746
37.932051,1662,0.000000,0.000000,0.000000,0.121166,0.046658,-0.137840
37.953435,1663,0.000000,0.000000,0.000000,0.136386,0.060505,-0.077441
37.975789,1664,0.000000,0.000000,0.000000,0.148609,0.041817,-0.012195
37.998180,1665,0.000000,0.000000,0.000000,0.135608,0.039199,-0.106516
38.020636,1666,0.000000,0.000000,0.000000,0.107441,0.084871,-0.175923
38.043102,1667,0.000000,0.000000,0.000000,0.098926,0.124619,-0.133273
38.064881,1668,0.000000,0.000000,0.000000,-0.046134,0.254746,-0.088804
38.087517,1669,0.000000,0.000000,0.000000,-0.062889,0.277561,-0.132304
38.109151,1670,0.000000,0.000000,0.000000,-0.011711,0.300551,-0.167447
38.169686,1671,0.000000,0.000000,0.000000,0.082454,0.311127,-0.183780
38.187245,1672,0.000000,0.000000,0.000000,0.133850,0.332269,-0.101149
38.209157,1673,0.000000,0.000000,0.000000,-0.000884,0.317627,-0.060454
38.231595,1674,0.000000,0.000000,0.000000,-0.072393,0.335025,0.026764
38.253958,1675,0.000000,0.000000,0.000000,-0.081377,0.361823,0.105416
38.275480,1676,0.000000,0.000000,0.000000,-0.088555,0.320688,0.067338
38.298055,1677,0.000000,0.000000,0.000000,-0.067085,0.243434,-0.069095
38.320570,1678,0.000000,0.000000,0.000000,-0.044339,0.191445,-0.137770
38.342269,1679,0.000000,0.000000,0.000000,-0.037172,0.137040,-0.101076
38.364707,1680,0.000000,0.000000,0.000000,-0.028773,0.063091,-0.056867
38.387869,1681,0.000000,0.000000,0.000000,0.004405,0.022257,-0.096871
38.409136,1682,0.000000,0.000000,0.000000,0.013934,0.018650,-0.190712
38.431570,1683,0.000000,0.000000,0.000000,0.018605,0.002971,-0.195350
38.453848,1684,0.000000,0.000000,0.000000,0.011802,-0.021698,-0.113735
38.475667,1685,0.000000,0.000000,0.000000,-0.014746,-0.001013,-0.033961
38.498196,1686,0.000000,0.000000,0.000000,-0.048428,0.052116,-0.029611
38.520629,1687,0.000000,0.000000,0.000000,-0.066465,0.027614,-0.094425
38.542308,1688,0.000000,0.000000,0.000000,-0.075787,0.016551,-0.070334
38.564737,1689,0.000000,0.000000,0.000000,-0.078341,0.058096,-0.041095
38.589599,1690,0.000000,0.000000,0.000000,-0.068854,0.046864,-0.058162
38.608718,1691,0.000000,0.000000,0.000000,-0.073689,0.028511,-0.056980
38.631067,1692,0.000000,0.000000,0.000000,-0.059680,0.019745,-0.059158
38.653316,1693,0.000000,0.000000,0.000000,-0.054354,0.011356,-0.052488
38.675228,1694,0.000000,0.000000,0.000000,-0.051848,-0.005446,-0.045986
38.697695,1695,0.000000,0.000000,0.000000,-0.053847,-0.014211,-0.037950
38.720460,1696,0.000000,0.000000,0.000000,-0.049513,0.004963,-0.010363
38.742523,1697,0.000000,0.000000,0.000000,-0.041321,-0.005690,-0.005748
38.764707,1698,0.000000,0.000000,0.000000,-0.059187,-0.016754,-0.008567
38.787235,1699,0.000000,0.000000,0.000000,-0.067821,-0.015856,0.008367
38.808652,1700,0.000000,0.000000,0.000000,-0.077176,-0.014509,0.031115
38.831152,1701,0.000000,0.000000,0.000000,-0.103398,-0.000088,0.026928
38.853477,1702,0.000000,0.000000,0.000000,-0.100835,0.008845,0.050203
38.875126,1703,0.000000,0.000000,0.000000,-0.083635,0.011630,0.084813
38.897618,1704,0.000000,0.000000,0.000000,-0.075282,0.010397,0.090088
38.920861,1705,0.000000,0.000000,0.000000,-0.059703,0.004660,0.055618
38.942451,1706,0.000000,0.000000,0.000000,-0.049972,-0.014626,0.043391
38.964653,1707,0.000000,0.000000,0.000000,-0.054633,-0.023970,0.011711
