ts_s,frame,accel_x,accel_y,accel_z,gyro_x,gyro_y,gyro_z
0.044856,0,0.000000,0.000000,0.000000,-0.248425,-0.272444,0.123524
0.070379,1,0.124752,-1.073015,0.206985,-0.124490,-0.214024,0.104317
0.089618,2,-0.381889,0.345346,0.236927,-0.136608,-0.223034,0.068317
0.112175,3,-0.411969,0.143072,0.175725,-0.155157,-0.239784,-0.002376
0.134448,4,0.058838,-0.196822,-0.055827,-0.157930,-0.233932,-0.037285
0.156688,5,-0.062053,-0.399597,0.004265,-0.122458,-0.211075,-0.003405
0.178902,6,-0.141764,-0.700356,-0.031009,-0.075661,-0.187095,0.063406
0.201668,7,0.077528,0.079147,-0.017172,-0.029310,-0.166035,0.083901
0.223770,8,0.210840,0.450703,0.056497,-0.016364,-0.135194,0.076669
0.245946,9,0.124548,0.492927,0.119883,-0.033635,-0.113727,0.088653
0.268105,10,-0.163490,-0.046997,0.058332,-0.058053,-0.107336,0.091178
0.289999,11,-0.030059,-0.439697,0.119148,-0.057086,-0.120120,0.070835
0.312027,12,-0.035857,-0.241732,0.008616,-0.040696,-0.139295,0.076467
0.334358,13,-0.139370,-0.283231,0.144276,-0.017965,-0.155963,0.074070
0.356468,14,-0.067159,-0.051826,0.066870,0.000661,-0.178745,0.061542
0.378529,15,-0.034657,0.373925,0.097344,0.011481,-0.195900,0.066902
0.400841,16,0.144611,0.009239,0.056321,0.013878,-0.207040,0.081925
0.422980,17,0.200792,-0.252299,-0.012207,0.011859,-0.208684,0.074711
0.445216,18,0.395301,-0.066820,0.011851,0.011871,-0.191363,0.044773
0.467388,19,0.314504,0.147465,-0.015732,0.012999,-0.161369,0.014592
0.489460,20,0.244761,0.143062,0.091457,0.011096,-0.123187,-0.002898
0.511660,21,0.191967,0.078386,0.034671,0.007467,-0.089065,-0.023359
0.534302,22,0.376281,-0.039342,0.020833,0.000045,-0.054733,-0.040549
0.556263,23,0.331922,0.138995,0.060406,-0.010109,-0.015696,-0.066209
0.578462,24,0.267559,0.169318,0.014447,-0.020843,0.028802,-0.079247
0.601405,25,0.165439,-0.087124,-0.027739,-0.026430,0.067261,-0.095423
0.622579,26,0.257459,-0.140471,-0.067117,-0.016078,0.094790,-0.104467
0.644952,27,0.312422,-0.329051,-0.065670,0.003508,0.117571,-0.102992
0.667441,28,0.087310,0.062020,0.004688,0.017878,0.138466,-0.107387
0.689680,29,0.143161,0.424991,0.092444,0.007469,0.153623,-0.112295
0.712156,30,0.180135,0.015837,-0.049477,-0.016754,0.173653,-0.123848
0.734752,31,0.159961,-0.347683,-0.076206,-0.013281,0.193482,-0.140158
0.756245,32,0.054271,-0.104018,0.002683,0.011087,0.210769,-0.143245
0.778530,33,-0.071514,0.205018,0.076738,0.021706,0.224207,-0.131284
0.802487,34,-0.006050,-0.138843,0.040666,0.021763,0.233307,-0.119511
0.822982,35,-0.038147,-0.189664,-0.000658,0.033481,0.236746,-0.116617
0.845224,36,0.002970,0.098418,0.053009,0.043201,0.238709,-0.109949
0.867808,37,-0.061983,-0.148591,0.060378,0.046641,0.231418,-0.102494
0.889594,38,-0.085100,-0.099397,0.025661,0.048116,0.230596,-0.101841
0.911997,39,-0.102338,-0.040191,0.000919,0.058769,0.223139,-0.105877
0.935782,40,-0.022993,0.079162,0.024632,0.068189,0.216337,-0.101537
0.956688,41,-0.024472,0.017516,0.003742,0.067894,0.203720,-0.107571
0.978891,42,0.022176,-0.081111,-0.010205,0.064534,0.192546,-0.117972
1.002858,43,-0.065841,0.050553,-0.024242,0.058039,0.181969,-0.130078
1.043981,44,-0.016579,0.026651,0.014830,0.054351,0.178529,-0.135404
1.068838,45,-0.220798,-0.075092,0.002671,0.044160,0.151242,-0.133764
1.089900,46,-0.131231,0.181058,-0.051076,0.046094,0.136738,-0.114070
1.112090,47,-0.130151,-0.071212,-0.033492,0.044507,0.125020,-0.101698
1.134056,48,-0.111010,-0.106660,-0.038731,0.048902,0.113713,-0.098637
1.156530,49,-0.067601,0.094988,-0.039710,0.054036,0.102371,-0.087129
1.179298,50,-0.240500,-0.046025,-0.023697,0.049086,0.082785,-0.078121
1.201179,51,-0.160847,-0.029151,0.043818,0.046215,0.063609,-0.072929
1.223117,52,-0.123600,0.035437,0.000007,0.041844,0.044023,-0.059711
1.245455,53,-0.145884,0.121632,0.031409,0.038370,0.024193,-0.054954
1.267771,54,-0.121608,0.165835,0.045876,0.029194,0.005185,-0.052413
1.290521,55,-0.064055,0.109299,-0.000802,0.017475,-0.007111,-0.052337
1.313608,56,-0.000442,-0.060731,-0.000152,0.007367,-0.012925,-0.048102
1.335499,57,-0.030191,-0.169069,-0.031828,0.008843,-0.011617,-0.044466
1.356547,58,-0.039016,-0.005511,0.042912,0.020416,-0.009487,-0.022999
1.378684,59,-0.077505,-0.214223,-0.002016,0.031312,-0.014270,-0.021169
1.401439,60,-0.005405,0.104345,0.012188,0.040279,-0.017467,-0.032199
1.422996,61,0.089514,0.219104,0.021475,0.038850,-0.011898,-0.014535
1.445277,62,-0.010017,-0.016270,-0.083810,0.028382,-0.007359,0.000756
1.469019,63,0.068096,-0.148819,0.010911,0.031201,-0.007881,-0.007809
1.489998,64,0.111998,0.078106,-0.126620,0.033742,-0.002556,-0.011583
1.512149,65,0.095293,0.126769,-0.018255,0.025168,0.008374,-0.017298
1.534215,66,0.005400,-0.027609,-0.029896,0.018661,0.019270,-0.017819
1.556536,67,0.069215,-0.006625,-0.045852,0.020137,0.024352,-0.016753
1.578870,68,0.043242,-0.050025,-0.088160,0.024398,0.031230,-0.014379
1.603183,69,0.014919,0.093494,0.015696,0.022134,0.034593,-0.018230
1.623206,70,0.036018,0.103485,0.016865,0.006942,0.037621,-0.020227
1.645487,71,-0.010795,-0.010580,-0.000457,-0.002889,0.038031,-0.021159
1.667965,72,0.026386,-0.006478,-0.005579,-0.005430,0.039507,-0.018374
1.690329,73,0.017591,0.031122,-0.003237,-0.007150,0.039095,-0.020179
1.712200,74,0.013818,-0.219764,-0.062141,-0.004220,0.039262,-0.035008
1.735471,75,0.083209,0.098020,-0.031322,0.000938,0.044421,-0.037793
1.756673,76,0.015455,-0.011505,0.053248,0.001400,0.047616,-0.032953
1.778787,77,-0.024654,-0.033649,-0.033119,-0.002912,0.046550,-0.038858
1.801565,78,0.039964,0.204386,0.022567,-0.009055,0.049009,-0.034220
1.823088,79,-0.053163,0.013821,-0.005003,-0.016628,0.047892,-0.030562
1.845363,80,-0.035471,0.072212,0.025836,-0.023264,0.043630,-0.027939
1.868076,81,0.037840,-0.044406,0.012567,-0.024740,0.039125,-0.031134
1.889954,82,0.049699,-0.232303,-0.065797,-0.023774,0.033931,-0.056423
1.912168,83,0.040097,0.038906,-0.063001,-0.016229,0.037127,-0.080646
1.934699,84,0.074136,0.204262,0.011703,-0.018094,0.047235,-0.063636
1.957013,85,-0.060694,-0.059354,-0.061626,-0.028151,0.052805,-0.048832
1.979164,86,0.022449,-0.095908,-0.018204,-0.026182,0.054280,-0.040721
2.001341,87,0.025507,0.026398,-0.009856,-0.021678,0.059773,-0.039656
2.073781,88,-0.000001,0.009635,-0.000027,-0.020531,0.059606,-0.036217
2.100977,89,-0.020335,0.073168,0.034244,-0.043806,0.062557,-0.046845
2.123212,90,-0.060948,-0.214479,0.000940,-0.034052,0.064520,-0.044680
2.145569,91,-0.067397,0.119113,0.050190,-0.021906,0.060837,-0.024933
2.168963,92,-0.116200,-0.118039,0.031840,-0.019416,0.052558,-0.027526
2.190134,93,-0.090926,0.090761,-0.012384,-0.016765,0.045511,-0.036348
2.212383,94,-0.011053,0.029366,0.066114,-0.014502,0.039907,-0.030779
2.234788,95,-0.135844,-0.044364,-0.041939,-0.016500,0.032283,-0.023398
2.256721,96,-0.027947,0.013217,0.047839,-0.013305,0.026468,-0.017961
2.279729,97,-0.084884,0.095898,0.005555,-0.015135,0.017125,-0.008617
2.301620,98,-0.085797,-0.161367,-0.018231,-0.015385,0.008846,-0.013533
2.323374,99,0.015902,-0.092736,0.015366,-0.008223,0.001145,-0.019159
2.345868,100,-0.041320,0.081056,-0.022696,-0.003441,-0.004182,-0.022488
2.368258,101,-0.002774,0.062741,0.034663,-0.005439,-0.001641,-0.019536
2.390850,102,-0.036806,-0.037128,0.021923,-0.006505,-0.003117,-0.014620
2.412594,103,-0.045854,-0.063350,-0.003770,-0.000635,-0.002296,-0.005931
2.435073,104,-0.048500,-0.002744,-0.001367,0.006133,-0.003285,0.006518
2.456722,105,-0.088261,-0.012379,0.138014,0.006300,-0.009343,0.003356
2.479040,106,0.019396,0.038409,-0.036577,0.009983,-0.008445,0.005487
2.501780,107,-0.086353,-0.012084,0.048526,0.014543,-0.009921,0.016794
2.523370,108,-0.144715,-0.110468,0.052219,0.014787,-0.014350,0.017448
2.545997,109,-0.015093,-0.050501,0.004200,0.020935,-0.016835,0.016904
2.766530,110,0.004348,0.007789,0.008973,0.030076,-0.015360,0.032883
2.803588,111,0.273563,0.093717,-0.072144,-0.000919,0.010070,0.002147
2.842501,112,0.013744,-0.025593,-0.033242,-0.001875,0.006630,-0.006786
2.866983,113,-0.021657,-0.003303,0.037684,0.002797,-0.002715,-0.006341
2.890770,114,-0.080176,-0.037022,-0.033149,0.002663,-0.012469,-0.017948
2.913941,115,0.234817,-0.018939,-0.029049,0.001875,-0.015255,-0.023929
2.937263,116,-0.024561,0.089146,0.038542,0.001353,-0.010994,-0.019668
2.960340,117,-0.042320,-0.140939,-0.001848,0.000449,-0.009351,-0.022402
2.983356,118,0.078933,0.130748,0.044651,0.000154,-0.009519,-0.027536
3.006021,119,0.078029,0.072135,-0.019465,-0.009323,-0.003127,-0.043793
3.071765,120,0.010873,-0.023722,-0.010043,-0.012109,0.002442,-0.041286
3.096398,121,-0.190496,-0.014577,0.002146,-0.001469,0.017111,-0.008506
3.119007,122,-0.136239,-0.006710,0.041557,-0.001469,0.012439,-0.002525
3.141229,123,-0.160003,-0.067569,0.012033,0.004233,0.002851,0.000948
3.163536,124,-0.071586,0.021192,0.005437,0.008335,-0.012550,0.002047
3.185854,125,-0.073348,-0.016782,0.033998,0.009836,-0.022467,0.000733
3.208475,126,-0.020400,0.055521,-0.065700,0.008903,-0.026600,0.004943
3.230351,127,-0.000858,-0.010742,-0.014143,0.005052,-0.026810,0.008927
3.252371,128,0.099271,0.066734,-0.015683,0.002921,-0.024436,0.010403
3.274745,129,-0.008439,-0.018491,-0.039323,0.001989,-0.018867,0.014497
3.296871,130,0.035173,0.090220,-0.019508,-0.005712,-0.014028,0.015863
3.319100,131,0.061950,-0.020531,0.004273,-0.007432,-0.011654,0.018897
3.341954,132,0.007383,-0.137483,0.017220,-0.003582,-0.014850,0.010948
3.363362,133,0.035004,0.059020,0.008723,-0.005192,-0.015261,0.005455
3.385836,134,0.031262,0.024220,-0.004144,-0.010241,-0.015094,-0.005685
3.407929,135,0.143818,-0.068065,0.003495,-0.007457,-0.010833,-0.007983
3.429975,136,0.053345,0.069353,-0.055257,-0.005327,0.000641,-0.005551
3.452504,137,-0.022569,-0.011009,0.083680,-0.007047,0.006287,-0.003998
3.474540,138,-0.045434,-0.064822,-0.018260,-0.004673,0.006454,-0.009157
3.496757,139,-0.018869,-0.020152,-0.000838,0.000652,0.006210,-0.009482
3.519097,140,-0.076107,-0.013173,0.035353,0.005214,0.003668,0.000952
3.541223,141,-0.040987,0.047521,-0.000404,0.003981,0.001782,0.002839
3.563321,142,-0.012624,0.031318,-0.029692,-0.002000,-0.001658,0.001607
3.586342,143,-0.007120,-0.072399,0.019617,-0.001833,-0.001415,0.008248
3.607787,144,-0.044476,0.025109,0.004872,0.005045,-0.003378,0.009474
3.629939,145,-0.068598,0.085671,0.039164,0.006328,-0.009527,0.011395
3.652382,146,-0.016312,-0.092931,0.002157,0.002015,-0.016330,0.001884
3.674735,147,0.039224,-0.034334,-0.032971,0.005466,-0.024192,-0.021928
3.696752,148,0.158541,0.171524,-0.050393,0.008876,-0.019358,-0.009347
3.719079,149,0.093686,-0.050811,-0.040460,-0.001297,-0.003380,0.008576
3.741392,150,0.143860,-0.074127,-0.048146,-0.007792,0.008338,-0.001867
3.763395,151,0.315491,-0.074202,-0.053773,-0.004157,0.023251,-0.019347
3.786711,152,0.373919,0.142438,-0.050579,-0.003058,0.047341,-0.027545
3.807998,153,0.706111,0.006767,-0.131714,-0.009584,0.088509,-0.036733
3.830009,154,0.849000,-0.139815,-0.179050,-0.007343,0.155899,-0.054032
3.852449,155,1.464493,-0.173455,-0.472626,-0.000448,0.272290,-0.075250
3.875167,156,1.342581,-0.205538,-0.419703,0.013754,0.445007,-0.086447
3.896756,157,0.784875,-0.269832,-0.267333,0.032504,0.607969,-0.108095
3.919474,158,0.399376,-0.257829,-0.135760,0.051933,0.735013,-0.139880
3.941356,159,0.092877,-0.278605,-0.115516,0.070708,0.818625,-0.167229
3.963424,160,-0.170284,0.272574,0.024825,0.083989,0.866395,-0.197913
3.985906,161,-0.303304,0.501000,0.160816,0.064137,0.881175,-0.225009
4.008082,162,-0.313329,0.111397,0.177003,0.031280,0.865607,-0.234464
4.074738,163,-0.050723,0.001334,0.011027,0.020871,0.850937,-0.227777
4.097040,164,0.287200,-0.874121,-0.310241,0.068537,0.794367,-0.133110
4.119288,165,-0.240494,-0.157613,0.100933,0.105469,0.790316,-0.140237
4.142303,166,-0.140775,-0.038528,0.213612,0.137126,0.762375,-0.143555
4.163564,167,-0.130582,0.038523,0.177865,0.149809,0.730140,-0.165589
4.185902,168,0.048549,0.402351,0.201009,0.146589,0.701377,-0.189728
4.208544,169,-0.051625,-0.220982,0.143139,0.135148,0.678242,-0.196942
4.230189,170,-0.349977,-0.710560,0.107650,0.152417,0.653573,-0.213976
4.252550,171,-0.432256,-1.147085,-0.288714,0.209031,0.628961,-0.258618
4.275645,172,-0.077556,-1.457042,-0.625875,0.313124,0.647371,-0.307205
4.297102,173,-0.075002,-2.181206,-0.960494,0.473700,0.712895,-0.359132
4.319322,174,-0.243161,0.106458,0.212103,0.620045,0.778286,-0.338014
4.341740,175,0.039550,5.350575,1.692315,0.576121,0.778229,-0.036912
4.363270,176,-0.849623,1.777589,1.555807,0.400230,0.692296,0.229190
4.385628,177,-0.577617,-1.916531,0.068341,0.305131,0.550337,0.216421
4.407920,178,-0.097582,-2.214652,-0.693329,0.358345,0.471941,0.041283
4.430087,179,-0.492801,0.484911,0.758920,0.405436,0.403485,-0.056336
4.452477,180,-0.625447,3.171981,1.714120,0.325112,0.277916,0.040248
4.476050,181,-0.918281,0.031470,0.752776,0.198862,0.094657,0.135895
4.496969,182,-0.781763,-1.336047,-0.318100,0.181606,-0.049433,0.121110
4.519368,183,-0.243066,-0.689934,-0.446763,0.227943,-0.135044,0.091937
4.541867,184,-0.544158,0.312570,0.176827,0.258291,-0.195464,0.087749
4.563493,185,-0.402322,0.969116,0.452094,0.231531,-0.263886,0.115774
4.586117,186,-0.150286,1.192066,0.369558,0.155636,-0.332399,0.175447
4.608213,187,-0.308386,-0.269020,-0.267836,0.087690,-0.385983,0.194285
4.630381,188,-0.364533,-0.844955,-0.487806,0.069180,-0.417809,0.159861
4.652711,189,-0.153706,-0.276390,-0.496825,0.089987,-0.436741,0.107136
4.675080,190,0.040038,0.704798,-0.238249,0.096078,-0.434855,0.099187
4.698061,191,0.105839,0.730765,-0.035825,0.060912,-0.414617,0.124799
4.719471,192,-0.060758,0.060718,-0.150957,0.010785,-0.395166,0.131613
4.742412,193,-0.058272,-0.113890,-0.254027,-0.016442,-0.370966,0.115943
4.764031,194,0.002448,-0.165368,-0.195611,-0.014445,-0.343515,0.102396
4.786228,195,-0.057558,0.174369,-0.087270,-0.012425,-0.321145,0.110154
4.810492,196,0.035337,0.287643,-0.028485,-0.024154,-0.291285,0.142262
4.830347,197,-0.006758,-0.031241,-0.153302,-0.038014,-0.264822,0.174569
4.852695,198,-0.090053,-0.139777,-0.006926,-0.034662,-0.242829,0.206469
4.875331,199,-0.057975,0.184470,0.021914,-0.022411,-0.228327,0.248918
4.897534,200,-0.182627,0.150707,0.100242,-0.031188,-0.225787,0.278880
4.919558,201,-0.206944,-0.029133,-0.053801,-0.042495,-0.227020,0.279258
4.941936,202,-0.102619,0.005466,-0.019536,-0.048921,-0.232180,0.283763
4.963943,203,-0.216189,0.122880,0.091162,-0.057176,-0.239638,0.304056
4.986481,204,-0.235210,-0.165670,0.042520,-0.060516,-0.259224,0.324078
5.008716,205,-0.107392,-0.198191,0.021141,-0.061137,-0.279800,0.321327
5.077414,206,0.003900,-0.022271,0.004350,-0.058762,-0.292770,0.318410
5.097772,207,1.733030,-1.729945,-0.545231,0.026493,-0.268271,0.151208
5.119845,208,1.912802,-0.468602,-0.582811,0.066296,-0.195910,0.054060
5.142253,209,2.268980,-0.159088,-0.804373,0.104489,-0.035676,-0.061764
5.164245,210,1.607129,0.039637,-0.593793,0.140813,0.172025,-0.114673
5.186461,211,1.408129,0.159523,-0.553695,0.151749,0.366981,-0.166871
5.208584,212,3.446889,0.981061,-1.656469,0.090266,0.600696,-0.364384
5.230909,213,4.183541,0.773555,-2.161966,0.003047,0.965506,-0.535285
5.253383,214,2.783178,-0.199711,-2.352283,-0.041841,1.412032,-0.590917
5.275815,215,2.492416,-0.106078,-2.606027,-0.065762,1.834362,-0.706289
5.297922,216,2.495824,0.453916,-2.926483,-0.144020,2.277038,-0.898315
5.319792,217,0.706181,-0.831914,-2.842807,-0.190910,2.675186,-1.009613
5.342359,218,-1.232800,-1.336421,-1.554390,-0.156205,2.939669,-1.055692
5.364223,219,-1.650443,-0.625876,-0.808751,-0.101236,3.034011,-1.098883
5.386382,220,-1.393628,-0.420680,-0.341918,-0.066894,3.006691,-1.128910
5.408674,221,-1.717311,-0.400424,0.441160,-0.037068,2.906522,-1.121616
5.430898,222,-1.944793,-0.289981,1.192269,0.005275,2.713533,-1.045400
5.453124,223,-1.764963,-0.063257,2.007878,0.044497,2.445371,-0.950049
5.475498,224,-1.916602,-0.748314,2.503238,0.109888,2.090842,-0.853661
5.497606,225,-1.713960,-0.251577,3.148019,0.191779,1.669874,-0.760052
5.519956,226,-1.174484,0.546482,3.005718,0.226579,1.232114,-0.682323
5.542334,227,-1.086683,-0.105192,2.398915,0.217911,0.796758,-0.656769
5.565084,228,-1.181940,-0.129820,2.153283,0.242433,0.394268,-0.630560
5.586675,229,-0.927972,0.648326,2.154467,0.271222,0.069409,-0.549759
5.608988,230,-0.523910,0.816417,1.271051,0.253244,-0.207236,-0.456004
5.630983,231,-0.538600,0.647777,0.526058,0.214893,-0.372628,-0.377516
5.653267,232,-0.373542,-0.021491,0.029450,0.197118,-0.439273,-0.315458
5.675647,233,-0.138668,0.413732,-0.087156,0.191136,-0.427440,-0.236028
5.698636,234,-0.150695,0.303930,-0.247930,0.177747,-0.369175,-0.148831
5.720090,235,-0.646708,-0.673900,-0.080243,0.195294,-0.289581,-0.088456
5.743009,236,-0.969992,-0.515311,1.019613,0.266920,-0.253530,-0.020428
5.764540,237,-0.930811,0.505684,1.845736,0.318849,-0.321742,0.053018
5.786736,238,-0.717907,1.171070,1.600971,0.308028,-0.455948,0.133563
5.809107,239,-1.068197,1.145367,1.356876,0.260541,-0.604216,0.248432
5.831315,240,-1.520259,0.291031,1.589755,0.233358,-0.773293,0.358632
5.853422,241,-1.858398,0.760422,2.634439,0.220429,-0.994394,0.464866
5.875924,242,-2.681711,0.676956,3.444109,0.201387,-1.354254,0.558333
5.897841,243,-3.074254,1.117396,3.092111,0.157872,-1.804031,0.634523
5.920169,244,-3.154075,0.637749,1.802995,0.120598,-2.275854,0.771679
5.943033,245,-2.726041,-0.137121,0.204674,0.112024,-2.653979,0.858565
5.964691,246,-2.463434,0.971839,-0.407207,0.090464,-2.920384,0.886276
5.986851,247,-1.821335,0.747505,-0.932112,0.040674,-3.096785,0.950158
6.010714,248,-0.919095,0.104141,-1.740217,-0.018432,-3.174460,1.002543
6.084746,249,-0.225833,-0.145119,-0.632920,-0.038301,-3.143947,1.043994
6.109210,250,0.119077,-0.746961,-6.499697,-0.005136,-2.803847,1.115653
6.131379,251,0.822023,-1.120850,-2.288156,-0.000076,-2.635640,1.089840
6.153715,252,1.573972,-0.374924,-1.909286,0.028542,-2.423754,1.035462
6.176277,253,1.264905,0.602110,-1.126168,0.024136,-2.202914,1.050585
6.198132,254,1.605411,-0.001068,-1.281524,-0.018486,-1.989272,1.068430
6.220631,255,2.438612,-0.970236,-1.173646,-0.031889,-1.741056,1.054133
6.242581,256,2.180903,-0.807264,-0.818828,-0.012204,-1.480634,0.994051
6.265013,257,1.595618,-0.411341,-0.432178,0.013230,-1.221875,0.903697
6.287196,258,1.103430,0.073638,-0.165246,0.023883,-1.004885,0.819214
6.309596,259,0.595381,0.576738,0.017058,-0.002905,-0.832746,0.782608
6.331747,260,0.464043,-0.137898,-0.041814,-0.030977,-0.705424,0.759342
6.353785,261,0.214932,-0.374425,-0.035481,-0.029500,-0.624764,0.757990
6.377821,262,-0.141796,-0.283219,0.088701,-0.012345,-0.591497,0.754628
6.398362,263,0.037364,-0.220002,0.050899,-0.009548,-0.602149,0.723772
6.420491,264,0.455007,-0.236601,0.017737,-0.013253,-0.603137,0.700657
6.442812,265,0.433226,-0.434823,-0.027810,0.001650,-0.594280,0.648906
6.465326,266,0.173048,-0.024681,0.166850,0.013223,-0.588004,0.588741
6.487335,267,-0.014927,0.168029,0.181318,-0.011553,-0.605620,0.513241
6.509730,268,0.680944,-0.619204,-0.022482,-0.024495,-0.619301,0.427719
6.531789,269,1.167276,-0.649963,0.089242,0.011947,-0.586034,0.356491
6.554110,270,0.764349,0.073996,0.263000,0.050400,-0.526211,0.297526
6.577183,271,0.067106,0.398063,0.221311,0.047052,-0.479883,0.259033
6.598360,272,-0.175668,0.599109,0.121405,0.017147,-0.463248,0.250836
6.620916,273,-0.515817,0.337178,-0.054887,-0.029615,-0.482478,0.272542
6.643274,274,-1.013503,-0.314767,-0.350660,-0.054125,-0.557734,0.296038
6.665672,275,-1.881399,0.094777,-0.560146,-0.077290,-0.717422,0.321512
6.687728,276,-1.936766,-0.750995,-0.730624,-0.108967,-0.953477,0.305593
6.709781,277,-0.180266,-0.745813,-0.672393,-0.113555,-1.164653,0.225133
6.731769,278,-0.826383,0.838855,-0.681014,-0.122155,-1.292350,0.216366
6.754200,279,-0.863619,-0.094295,-0.748450,-0.149477,-1.432621,0.264040
6.777252,280,1.084391,-0.703379,-0.232137,-0.137173,-1.511469,0.229286
6.798352,281,2.560616,0.246687,0.500302,-0.100551,-1.431371,0.181401
6.820801,282,2.925079,-0.014238,1.018614,-0.062587,-1.175933,0.124011
6.843335,283,3.637583,-0.901215,1.231982,0.015064,-0.821103,0.009883
6.865382,284,4.206029,-1.030082,1.807206,0.148469,-0.395447,-0.143381
6.887744,285,2.750721,0.730859,1.659616,0.255237,0.068152,-0.215370
6.909928,286,0.323592,1.768204,0.685889,0.264224,0.433737,-0.132227
6.931948,287,0.079038,0.279262,0.282305,0.233395,0.630154,-0.063887
6.954315,288,0.070742,0.417303,0.069492,0.197968,0.744528,-0.059703
6.977792,289,-1.077863,0.618406,-0.355106,0.132569,0.771682,-0.045660
6.999615,290,-0.758161,-1.229065,-0.580459,0.106796,0.685852,-0.060405
7.021505,291,0.440018,-1.632290,-0.175953,0.165036,0.564194,-0.123003
7.094954,292,0.241090,-0.180220,0.034099,0.216407,0.539005,-0.159041
7.121253,293,7.357468,1.829154,1.584581,0.380395,1.387635,-0.351118
7.143719,294,-1.869447,3.089316,-0.514774,0.292422,1.487525,-0.153659
7.165567,295,-1.865801,1.205848,-1.073517,0.110059,1.455681,-0.048395
7.187800,296,0.165278,-2.016652,-1.087190,0.005068,1.358501,-0.145777
7.210276,297,-0.264875,-1.039798,-0.923147,0.036685,1.286031,-0.158047
7.232292,298,-1.116610,-1.096591,-0.549287,0.098305,1.185100,-0.146714
7.254910,299,-0.565066,-0.487745,-0.028654,0.129016,1.043279,-0.241599
7.277672,300,0.545323,0.224653,0.454532,0.147433,0.956120,-0.347364
7.299095,301,0.727801,0.840284,0.824397,0.143695,0.956533,-0.364655
7.321572,302,0.293136,0.110682,0.823450,0.127191,0.978773,-0.315834
7.343641,303,-0.077317,-0.325725,0.967291,0.125600,0.968776,-0.308756
7.366579,304,0.365031,-0.276346,1.037163,0.146867,0.944000,-0.343414
7.388980,305,0.312816,-0.630594,1.384383,0.177690,0.935236,-0.375531
7.410410,306,-0.424933,-0.610308,1.666560,0.212613,0.896442,-0.402253
7.432551,307,-0.812598,-1.118033,1.680064,0.304371,0.791249,-0.406471
7.455139,308,-0.624618,-2.175813,1.389321,0.436025,0.645785,-0.453044
7.477314,309,-0.394913,-1.533508,1.433210,0.579654,0.518689,-0.457761
7.499361,310,-0.585600,-1.219219,1.803215,0.719815,0.400510,-0.384133
7.521772,311,-1.048349,-0.677003,1.505081,0.810484,0.275411,-0.325424
7.543916,312,-1.005250,0.490859,1.429571,0.823500,0.151697,-0.295055
7.566093,313,-0.589056,-0.009985,0.175276,0.798368,0.058499,-0.278113
7.588502,314,-0.365168,-0.399288,-1.133051,0.858156,-0.017244,-0.252230
7.610538,315,-0.494312,0.596398,-1.134662,0.961690,-0.068110,-0.273200
7.632746,316,-0.537412,2.652351,-0.211479,0.936639,-0.074501,-0.291204
7.655507,317,-0.402421,3.185302,-0.329283,0.778547,-0.041164,-0.341268
7.677679,318,-0.375857,3.784404,0.112239,0.519741,0.022956,-0.410200
7.699571,319,-0.155733,2.110166,-0.263250,0.237010,0.102781,-0.367158
7.721756,320,-0.763097,-0.329532,-1.244610,0.067869,0.138845,-0.245771
7.744049,321,-1.086033,-0.433626,-1.155142,0.043350,0.093006,-0.182846
7.767057,322,-0.850963,0.861586,-0.666986,0.018358,0.016719,-0.218267
7.788746,323,-0.189511,1.420290,-0.039407,-0.084395,-0.012453,-0.236234
7.810959,324,-0.381923,0.227494,-0.081028,-0.192797,-0.015615,-0.199061
7.833511,325,-0.789935,0.189994,-0.343659,-0.254573,-0.034267,-0.156984
7.855551,326,-0.624666,-0.442730,0.010241,-0.292062,-0.070485,-0.124727
7.877834,327,-0.332748,0.002661,0.348939,-0.318102,-0.085399,-0.098819
7.899706,328,-0.013044,0.071957,0.118323,-0.346350,-0.072371,-0.080067
7.922087,329,-0.214251,0.064411,0.102486,-0.352258,-0.044396,-0.058085
7.944748,330,-0.180051,0.155946,0.561121,-0.366963,-0.009075,-0.046212
7.966543,331,0.005642,-0.663617,-0.091977,-0.370514,0.035366,-0.035293
7.988894,332,-0.282167,-0.864518,-0.329505,-0.289087,0.071586,-0.015748
8.011150,333,-0.408282,0.272346,0.470886,-0.214392,0.104910,0.003716
8.089296,334,-0.065785,0.028796,0.192478,-0.225391,0.140752,0.035054
8.111529,335,-0.977649,-2.610932,0.035737,-0.072632,0.158418,0.118782
8.133553,336,-0.005111,-0.403692,0.189133,-0.043105,0.171613,0.114742
8.156579,337,-0.346980,-0.186706,0.098745,-0.018204,0.167075,0.148129
8.178105,338,-0.299333,-0.184976,0.181111,-0.012756,0.132820,0.197845
8.200320,339,-0.116461,-0.264241,0.259364,0.006598,0.087558,0.251045
8.222741,340,-0.035094,-0.650725,-0.017332,0.045399,0.042541,0.296268
8.244990,341,0.078729,-0.533519,-0.209107,0.096152,-0.000590,0.302425
8.267366,342,0.225154,-0.309272,-0.048016,0.143741,-0.033068,0.289063
8.289567,343,0.282173,-0.495632,-0.394456,0.181824,-0.057569,0.274850
8.311736,344,0.260618,-0.145437,-0.366313,0.216300,-0.074236,0.256696
8.333662,345,0.185278,0.297913,-0.356073,0.229882,-0.084963,0.241406
8.356820,346,0.180187,-0.018489,-0.223787,0.212050,-0.088569,0.221736
8.378639,347,0.250896,-0.331756,-0.514310,0.197595,-0.078738,0.153201
8.400559,348,0.234462,-0.214677,-0.551340,0.210451,-0.058330,0.097076
8.422782,349,0.048681,0.124799,-0.431481,0.225742,-0.044481,0.105055
8.445338,350,-0.032662,0.063925,-0.290001,0.226585,-0.043171,0.127021
8.467668,351,0.114402,0.033847,-0.219280,0.216276,-0.047599,0.153127
8.489744,352,0.340067,0.214536,-0.267396,0.208043,-0.046255,0.193219
8.512077,353,0.289900,-0.086291,-0.487330,0.190964,-0.037809,0.196843
8.534555,354,0.372651,0.081880,-0.281984,0.173676,-0.017568,0.193342
8.557170,355,0.325537,-0.199489,-0.218922,0.168431,-0.001640,0.199456
8.578468,356,0.038048,-0.159149,-0.226408,0.171185,-0.000279,0.198558
8.601053,357,0.137534,-0.200976,-0.203661,0.181132,-0.014949,0.200666
8.623269,358,0.187571,-0.144965,-0.206104,0.200850,-0.037730,0.209165
8.645557,359,0.371972,-0.352012,-0.242475,0.222843,-0.055295,0.205494
8.667926,360,0.302895,-0.304156,-0.153890,0.243338,-0.059556,0.176131
8.689663,361,0.173404,-0.609221,-0.214087,0.275140,-0.063406,0.149511
8.711919,362,0.276766,-0.911077,-0.377971,0.336038,-0.070729,0.127129
8.734506,363,0.156579,0.203512,-0.035994,0.380345,-0.074035,0.112260
8.757117,364,0.215835,0.977306,-0.105869,0.356610,-0.060486,0.094383
8.778753,365,0.271673,0.622797,-0.266846,0.301383,-0.036362,0.089890
8.801415,366,0.048470,0.357569,-0.344246,0.244236,-0.015056,0.092032
8.823032,367,0.091442,0.317188,-0.270550,0.189959,0.001035,0.083932
8.845347,368,0.052270,0.247063,-0.126813,0.145445,0.012133,0.063236
8.867878,369,0.043419,-0.175592,-0.181508,0.140119,0.025161,0.063126
8.890275,370,-0.202025,0.117161,0.140900,0.151281,0.019669,0.082168
8.912250,371,-0.158117,0.360390,0.257238,0.131753,-0.005242,0.095195
8.935157,372,0.100198,0.036445,-0.019467,0.105909,-0.028022,0.096804
8.957328,373,0.201801,0.229081,-0.168901,0.090910,-0.048504,0.102618
8.978881,374,0.230304,0.105470,-0.278490,0.070559,-0.067922,0.109143
9.001592,375,0.454583,-0.440280,-0.495187,0.062987,-0.095895,0.108112
9.024298,376,0.407187,0.186636,-0.415850,0.070345,-0.121049,0.097193
9.091979,377,0.076597,0.028677,-0.084924,0.066010,-0.126785,0.067198
9.112012,378,0.764535,0.505110,-0.910304,-0.056610,-0.129212,-0.120010
9.134882,379,-0.082092,-0.353587,-0.105043,-0.056153,-0.147917,-0.165261
9.157423,380,-0.116859,-0.261232,0.072177,-0.038588,-0.167014,-0.168967
9.178941,381,-0.092465,-0.446396,-0.031330,-0.014197,-0.186021,-0.154864
9.201952,382,-0.214148,-0.534208,0.155004,0.022903,-0.205304,-0.165261
9.223335,383,-0.184939,-0.456303,0.266146,0.062925,-0.219840,-0.177101
9.245622,384,-0.232293,-0.456041,0.267197,0.106711,-0.231313,-0.172308
9.268459,385,-0.305214,0.146368,0.384691,0.132133,-0.243961,-0.152501
9.290162,386,-0.177513,-0.018055,0.142614,0.130002,-0.242727,-0.153156
9.312402,387,-0.106600,-0.342123,-0.117889,0.149321,-0.230521,-0.167138
9.335197,388,-0.125393,0.089260,0.053437,0.180868,-0.217570,-0.162977
9.357425,389,-0.175463,0.487008,0.238498,0.186316,-0.206261,-0.116794
9.378974,390,-0.059612,0.548112,0.216639,0.159940,-0.193854,-0.069935
9.402970,391,0.190369,0.029095,-0.116867,0.139301,-0.174434,-0.025860
9.423670,392,0.305756,-0.179905,-0.432765,0.157895,-0.157632,0.006675
9.445770,393,0.325001,-0.100593,-0.559421,0.200066,-0.144848,0.032410
9.468643,394,0.271784,0.391382,-0.184207,0.219374,-0.132063,0.045445
9.490415,395,0.332015,0.557671,0.012677,0.200032,-0.114086,0.040460
9.512832,396,0.061908,0.280875,-0.036880,0.157433,-0.097451,0.003951
9.535364,397,0.017930,-0.168305,-0.122725,0.126106,-0.089634,-0.025033
9.557367,398,-0.122167,-0.121697,-0.064658,0.109589,-0.093488,-0.034245
9.579437,399,-0.146368,-0.136856,0.040837,0.095247,-0.102907,-0.042634
9.602128,400,-0.012307,-0.510402,-0.232862,0.101395,-0.109164,-0.043012
9.623771,401,-0.126526,-0.290143,-0.207280,0.126007,-0.114899,-0.046231
9.646041,402,-0.154799,0.030212,-0.045624,0.135183,-0.126616,-0.042481
9.669383,403,-0.095996,-0.016513,-0.187950,0.138268,-0.137267,-0.032894
9.690460,404,-0.087180,0.081270,-0.286473,0.145968,-0.145377,-0.033850
9.713657,405,-0.085037,0.327836,-0.145880,0.135426,-0.149804,-0.043194
9.735189,406,-0.127789,0.211949,-0.126315,0.114664,-0.151523,-0.033829
9.757918,407,-0.116542,-0.005823,-0.317400,0.106031,-0.154961,-0.027195
9.779240,408,-0.164186,0.201209,-0.142927,0.098574,-0.162828,-0.033749
9.801826,409,-0.042067,0.296477,-0.072840,0.077923,-0.165855,-0.034874
9.823704,410,-0.043590,0.064542,-0.231934,0.057816,-0.164545,-0.027319
9.845989,411,-0.020799,-0.024307,-0.127939,0.049560,-0.165609,-0.011341
9.868692,412,-0.025946,0.084124,-0.176355,0.049449,-0.171345,0.002751
9.890679,413,0.052403,0.279011,-0.063520,0.040649,-0.172409,0.015179
9.912932,414,0.063653,0.238991,-0.049527,0.020542,-0.168113,0.019128
9.935398,415,0.084439,-0.029272,-0.133077,0.006560,-0.159757,0.010251
9.957487,416,0.019476,0.038260,0.012654,-0.001852,-0.149758,-0.004941
9.979721,417,-0.053566,0.279131,0.178791,-0.016599,-0.142057,-0.007922
10.002653,418,0.010993,-0.056956,-0.119149,-0.029683,-0.132434,-0.021343
10.024093,419,0.112095,-0.019580,-0.079436,-0.032712,-0.121781,-0.022494
10.104331,420,0.016472,-0.021668,-0.021117,-0.027796,-0.107931,-0.016539
10.124385,421,0.037396,0.128050,0.214188,-0.048591,-0.053731,-0.002403
10.147391,422,0.095139,-0.244133,-0.303708,-0.044081,-0.036441,0.003787
10.168979,423,0.033316,-0.165361,-0.195114,-0.015511,-0.021359,0.011059
10.191362,424,-0.062028,0.026347,0.022150,0.006692,-0.012181,0.020355
10.213331,425,-0.013110,0.056766,0.033768,0.008956,0.002080,0.026058
10.235793,426,-0.094249,0.157215,0.033429,0.001632,0.016584,0.034302
10.257740,427,-0.117345,0.071363,0.013968,-0.003972,0.020436,0.045909
10.279737,428,-0.065383,0.012921,-0.036498,0.001377,0.011915,0.065443
10.303486,429,0.048046,0.180471,0.179283,0.001938,0.003395,0.095189
10.324111,430,0.169112,0.052974,0.104396,-0.002629,-0.003406,0.119989
10.346931,431,0.249345,-0.138092,0.013308,-0.007955,-0.006022,0.120234
10.369795,432,0.253979,0.028395,0.101047,-0.012893,-0.000451,0.096219
10.391006,433,0.138586,0.146605,0.244197,-0.023535,0.006186,0.061853
10.414246,434,0.124742,0.080608,0.269172,-0.043109,0.008972,0.032980
10.435755,435,0.052062,-0.151002,0.070272,-0.043571,0.001029,0.024458
10.457857,436,0.087097,-0.087618,0.141733,-0.039115,-0.005117,0.012195
10.479870,437,0.172818,-0.173207,0.026112,-0.034106,-0.005770,-0.015635
10.502936,438,0.164057,-0.323475,-0.062352,-0.018476,0.001688,-0.037729
10.524249,439,0.011090,0.014828,0.101084,-0.005693,0.010456,-0.043299
10.547165,440,0.030658,-0.006617,0.040436,-0.002387,0.014231,-0.050762
10.568949,441,0.173935,-0.200694,-0.111063,0.009088,0.024139,-0.045975
10.591328,442,0.127665,-0.014440,-0.194101,0.029050,0.034473,-0.036355
10.613272,443,0.059046,0.095562,0.019260,0.040032,0.042585,-0.036355
10.635818,444,0.072203,0.198525,0.017828,0.030116,0.053726,-0.036801
10.657813,445,0.012629,0.088146,-0.023032,0.013893,0.060940,-0.032031
10.679936,446,-0.070521,0.045998,-0.146268,0.002912,0.060975,-0.032142
10.702645,447,-0.086684,0.093754,-0.050232,-0.004627,0.050533,-0.037469
10.725489,448,-0.139590,0.102819,0.058527,-0.014925,0.037340,-0.052140
10.747246,449,-0.147905,0.207872,0.083848,-0.033522,0.025791,-0.055413
10.769030,450,-0.095889,0.030199,-0.170775,-0.037783,0.012187,-0.049843
10.791299,451,-0.190123,-0.030763,-0.127633,-0.040436,-0.003624,-0.048124
10.813216,452,0.008167,0.018440,-0.046750,-0.049502,-0.010425,-0.053040
10.835660,453,-0.017793,-0.069569,-0.188077,-0.052647,-0.008780,-0.051154
10.857880,454,-0.117465,0.043894,-0.034653,-0.048583,-0.004685,-0.035997
10.879967,455,-0.122182,0.094753,0.037240,-0.051807,-0.002554,-0.019231
10.903093,456,-0.057943,0.067440,0.034563,-0.053969,0.002362,-0.019718
10.924385,457,-0.007083,0.210623,0.064921,-0.060035,0.013948,-0.015736
10.946498,458,-0.034882,0.161387,0.101892,-0.073751,0.027387,-0.007769
10.968860,459,-0.101137,0.121707,0.033539,-0.089053,0.037386,0.006756
10.991357,460,0.130870,-0.118347,-0.083735,-0.093182,0.046808,0.019094
11.013342,461,0.095391,-0.030627,-0.092359,-0.083873,0.058282,0.034585
11.035576,462,0.067833,-0.114903,-0.031056,-0.071149,0.068449,0.050648
11.106038,463,0.003815,0.008675,-0.002175,-0.065741,0.071235,0.053382
11.124792,464,0.152338,0.194664,0.234485,-0.096235,0.079626,-0.000026
11.147454,465,-0.003574,-0.000356,-0.013109,-0.104758,0.069629,-0.006175
11.169077,466,0.124063,0.120339,0.042472,-0.110796,0.064958,-0.014570
11.191324,467,0.158807,0.095469,-0.048793,-0.119092,0.071350,-0.031365
11.213545,468,0.180857,0.084638,-0.063606,-0.121959,0.080284,-0.034915
11.235734,469,0.111523,-0.096805,-0.037552,-0.122614,0.090527,-0.037456
11.257922,470,0.146284,-0.148297,-0.090557,-0.111029,0.101181,-0.046800
11.280153,471,0.283635,-0.047589,0.017972,-0.099688,0.110114,-0.054309
11.302872,472,0.083888,0.016847,0.060472,-0.088925,0.120768,-0.060615
11.324503,473,0.063346,0.172570,0.218990,-0.095450,0.129291,-0.073022
11.347519,474,0.237338,-0.038350,0.012378,-0.106347,0.142840,-0.075430
11.369276,475,0.055937,-0.243706,-0.120824,-0.099463,0.148988,-0.069861
11.391176,476,-0.032926,-0.191685,0.070529,-0.077453,0.148468,-0.064333
11.413263,477,-0.015066,-0.189560,0.039452,-0.063060,0.138060,-0.049854
11.435979,478,-0.144902,-0.223480,-0.000150,-0.046920,0.123969,-0.051840
11.458044,479,-0.045403,-0.470712,-0.007425,-0.022193,0.108368,-0.062399
11.480392,480,-0.242015,0.060969,0.374822,-0.004106,0.096164,-0.087005
11.502575,481,-0.144827,0.212356,0.442231,-0.011973,0.088129,-0.078349
11.524370,482,-0.262062,-0.365852,-0.115856,-0.008100,0.074693,-0.058486
11.547348,483,-0.336948,-0.427413,-0.188650,0.026533,0.050158,-0.048777
11.569362,484,-0.317369,-0.149250,-0.037811,0.058492,0.021859,-0.041527
11.591411,485,-0.351886,-0.013552,0.042419,0.074715,-0.008540,-0.037204
11.613409,486,-0.401415,0.042756,0.033907,0.076325,-0.042628,-0.027883
11.635826,487,-0.241298,0.054221,-0.079191,0.079787,-0.072565,-0.004169
11.658120,488,-0.281431,0.175935,-0.053554,0.078300,-0.097233,0.025936
11.680037,489,-0.231987,0.210869,0.148112,0.059340,-0.124275,0.043056
11.702786,490,-0.321172,-0.085890,-0.058748,0.039974,-0.151560,0.048961
11.724439,491,-0.463912,-0.117639,-0.077868,0.038909,-0.194204,0.046321
11.746726,492,-0.362190,0.077830,0.023387,0.026236,-0.249019,0.037087
11.769251,493,-0.055422,0.008304,-0.043778,0.018779,-0.286824,0.028056
11.791185,494,0.116971,-0.213342,-0.201587,0.025448,-0.297643,0.021364
11.813306,495,0.179821,0.032810,-0.072914,0.043835,-0.292804,0.014429
11.835936,496,0.274556,0.149358,-0.071168,0.048918,-0.266005,0.013831
11.857878,497,0.301104,0.237498,0.042478,0.036102,-0.228366,0.020699
11.880044,498,0.395591,0.145004,-0.108865,0.024928,-0.183046,0.029544
11.902676,499,0.381912,-0.012649,-0.079871,0.022469,-0.127299,0.036899
11.924538,500,0.415683,0.160399,0.045217,0.022387,-0.073179,0.033944
11.946873,501,0.380626,0.149642,0.103541,0.011080,-0.013824,0.029267
11.969290,502,0.293512,0.079409,0.064886,0.003623,0.044765,0.028896
11.991175,503,0.215835,-0.113353,-0.021563,0.004688,0.085112,0.025261
12.013543,504,0.021894,-0.168478,-0.108726,0.017338,0.109203,0.020229
12.035976,505,0.120033,0.013270,0.072267,0.024384,0.124117,0.015396
12.119718,506,0.003155,0.021103,0.002089,0.023596,0.138376,0.008761
12.147674,507,-0.337768,0.236952,-0.062297,-0.023421,0.083638,0.018969
12.169573,508,-0.083811,-0.204260,-0.158545,-0.026062,0.056595,0.001137
12.191563,509,-0.135225,-0.058083,-0.093759,-0.019282,0.035911,-0.020024
12.213494,510,-0.163782,0.097764,0.119748,-0.018594,0.009370,-0.030399
12.235894,511,-0.155331,-0.230451,-0.192793,-0.012121,-0.015054,-0.024030
12.258240,512,-0.132395,-0.275178,-0.216048,0.003364,-0.037946,-0.022987
12.280467,513,-0.072827,0.031771,-0.040283,0.016609,-0.056709,-0.021032
12.303566,514,-0.117740,0.121883,0.071976,0.019116,-0.063511,-0.007351
12.324572,515,-0.051148,0.248911,0.075005,0.007856,-0.063921,0.005155
12.347489,516,0.009783,0.067406,-0.009987,-0.012084,-0.058838,0.014221
12.369379,517,0.017812,-0.069344,-0.199514,-0.013017,-0.053512,0.027381
12.391742,518,-0.005254,-0.157601,-0.159457,0.003638,-0.054577,0.045114
12.413714,519,0.004261,0.051712,-0.120795,0.021059,-0.054987,0.058419
12.436066,520,0.029430,0.220611,0.019019,0.021713,-0.053511,0.060793
12.458383,521,0.023697,0.267446,0.124613,0.010127,-0.049417,0.067074
12.480543,522,0.049030,0.134796,-0.036188,-0.006836,-0.050726,0.074329
12.503056,523,0.082430,0.052810,-0.045516,-0.014785,-0.047252,0.070125
12.524942,524,0.218478,0.112844,0.084784,-0.027458,-0.040617,0.057476
12.547740,525,0.108721,0.086962,0.167981,-0.047253,-0.028077,0.041109
12.569489,526,0.154266,-0.008950,0.099888,-0.056730,-0.012342,0.031000
12.591648,527,0.123083,-0.039884,0.114823,-0.059104,0.002926,0.023920
12.613775,528,0.170794,-0.165647,0.054458,-0.055387,0.018661,0.019300
12.636204,529,0.074119,-0.164819,0.077489,-0.040388,0.034884,0.013025
12.658771,530,0.013663,-0.174368,0.111125,-0.025770,0.042097,0.008463
12.680668,531,-0.107213,-0.143874,0.173320,-0.017304,0.044882,-0.001368
12.704123,532,-0.105973,-0.084907,0.038544,-0.010768,0.041819,-0.021741
12.724862,533,-0.062531,0.002279,0.139641,-0.004920,0.040176,-0.023761
12.747849,534,-0.027861,-0.221540,-0.050306,0.003247,0.036903,-0.018320
12.769462,535,-0.108566,-0.131445,-0.056374,0.015569,0.031166,-0.017393
12.791631,536,-0.074343,0.045337,-0.003574,0.022533,0.023952,-0.020884
12.813598,537,-0.183597,0.374760,0.235406,0.014387,0.018626,-0.016739
12.836029,538,-0.150894,0.140328,0.130348,-0.004603,0.008795,-0.000703
12.859413,539,-0.155735,-0.039414,0.002799,-0.008105,-0.009482,0.020602
12.880356,540,-0.045961,-0.083437,0.003811,-0.002317,-0.027668,0.031567
12.903209,541,0.067705,-0.016619,0.021954,0.002680,-0.039664,0.036315
12.924756,542,0.050556,0.201721,0.139543,-0.002895,-0.041551,0.031643
12.947626,543,0.175582,0.127735,0.157146,-0.026493,-0.032751,0.029124
12.969419,544,0.218038,-0.378358,-0.179267,-0.026215,-0.017838,0.023520
12.991761,545,0.136301,-0.094403,-0.030059,-0.009714,-0.005709,0.018715
13.013663,546,0.154693,0.041089,0.070693,-0.003322,0.005598,0.019126
13.036211,547,0.194183,-0.017631,0.014110,-0.001846,0.014287,0.017574
13.058573,548,0.162043,-0.255338,-0.165164,0.018017,0.027968,0.007763
13.138334,549,0.026990,-0.018403,-0.020618,0.028780,0.031575,-0.000592
13.157970,550,0.752392,1.137155,0.049211,-0.041295,0.058484,-0.064856
13.180227,551,0.366476,0.202853,-0.082823,-0.068663,0.087849,-0.076990
13.202837,552,0.179897,-0.013040,-0.117615,-0.079611,0.119725,-0.081974
13.224810,553,0.127130,-0.045968,-0.074773,-0.082396,0.137667,-0.083804
13.247356,554,0.089917,-0.039115,-0.035373,-0.078546,0.146113,-0.084626
13.269842,555,0.075367,-0.040759,-0.036570,-0.074418,0.150861,-0.090850
13.291756,556,0.023489,-0.003649,-0.057770,-0.072994,0.152991,-0.096511
13.313867,557,-0.009078,-0.123515,-0.060748,-0.066274,0.154711,-0.103198
13.336960,558,-0.021573,0.024797,-0.046218,-0.060594,0.148730,-0.114419
13.358008,559,-0.115278,-0.010375,0.006174,-0.061493,0.141928,-0.116683
13.380431,560,-0.137603,-0.030372,0.043894,-0.066576,0.130210,-0.115952
13.402790,561,-0.095019,-0.039471,-0.082478,-0.064805,0.115707,-0.108897
13.424923,562,0.004746,-0.084747,-0.103929,-0.057921,0.108250,-0.101004
13.448389,563,-0.064589,-0.029154,-0.109896,-0.049532,0.104776,-0.110968
13.469944,564,-0.156873,0.141766,0.105441,-0.047512,0.095356,-0.101591
13.491775,565,-0.182895,0.178597,0.002066,-0.055246,0.084703,-0.087614
13.513964,566,-0.066182,-0.066593,-0.013774,-0.061128,0.078145,-0.074749
13.536209,567,-0.032634,-0.109995,-0.092375,-0.061153,0.073473,-0.066354
13.558167,568,-0.121859,0.081211,0.030324,-0.056156,0.063641,-0.060622
13.580502,569,-0.106733,-0.003581,0.017943,-0.058043,0.060202,-0.055296
13.602919,570,-0.020917,-0.069705,-0.087691,-0.058698,0.055286,-0.056361
13.624925,571,-0.082077,0.036755,0.004562,-0.054848,0.055119,-0.061988
13.647229,572,-0.033947,0.008515,0.021864,-0.051652,0.052501,-0.060101
13.670307,573,-0.158285,-0.033516,-0.076451,-0.048978,0.051268,-0.051168
13.691461,574,-0.171815,-0.011307,-0.007940,-0.045539,0.044633,-0.044742
13.713845,575,-0.085978,-0.031530,-0.072675,-0.044341,0.035045,-0.037041
13.736120,576,-0.142409,0.062223,0.059005,-0.049257,0.031271,-0.035732
13.758979,577,-0.173096,0.001200,0.021954,-0.052076,0.028075,-0.025901
13.780412,578,-0.222378,0.053139,0.065801,-0.056448,0.012095,-0.018931
13.803071,579,-0.300049,0.018777,0.088029,-0.064316,-0.010143,-0.019475
13.825070,580,-0.221296,-0.051405,-0.021467,-0.069809,-0.037185,-0.019967
13.847512,581,-0.158905,-0.079587,0.023579,-0.066690,-0.059556,-0.018021
13.870028,582,-0.050156,-0.020557,0.005386,-0.060575,-0.078153,-0.005858
13.892344,583,-0.011678,-0.162426,0.003669,-0.051886,-0.085888,-0.000010
13.914010,584,0.037675,-0.235582,-0.074869,-0.027090,-0.083514,0.005705
13.936212,585,0.011367,-0.138720,-0.008991,0.000035,-0.076134,0.015570
13.958501,586,0.014190,-0.070239,0.059052,0.018278,-0.062043,0.027566
13.980501,587,0.034224,-0.243270,-0.017678,0.039826,-0.048195,0.036442
14.002874,588,-0.021109,-0.144993,-0.119886,0.069954,-0.033038,0.045485
14.025212,589,-0.068823,0.251615,0.242030,0.077210,-0.024760,0.060566
14.047299,590,-0.099101,0.162223,0.125246,0.063252,-0.021077,0.070774
14.069762,591,-0.048612,-0.092877,-0.022257,0.054863,-0.024350,0.079597
14.138138,592,-0.006803,-0.016639,0.003412,0.055031,-0.025339,0.080829
14.159231,593,-0.107350,-0.134809,0.102836,0.063798,-0.041563,0.078844
14.180757,594,0.074097,-0.026922,0.051774,0.059948,-0.041153,0.076679
14.202974,595,0.033317,-0.087963,-0.083482,0.062189,-0.042051,0.069333
14.225222,596,0.027487,0.075005,0.013661,0.065060,-0.042630,0.064342
14.247295,597,0.104455,0.153112,0.025733,0.063122,-0.036649,0.059502
14.269730,598,0.069893,0.050164,0.025536,0.053124,-0.030091,0.057633
14.291558,599,0.059565,0.063035,-0.001624,0.046078,-0.025176,0.055097
14.313823,600,0.058687,0.075986,-0.006935,0.040340,-0.021980,0.057848
14.336073,601,0.019393,0.136024,0.008251,0.029277,-0.020505,0.051757
14.359434,602,0.046491,-0.029898,-0.016030,0.022398,-0.021981,0.051513
14.380437,603,-0.058627,0.012464,-0.060418,0.017072,-0.022115,0.047085
14.403158,604,0.069281,-0.047293,0.043572,0.012510,-0.024245,0.043368
14.424907,605,-0.022362,0.036063,-0.041359,0.007728,-0.032148,0.046807
14.447320,606,0.074131,-0.150588,-0.132232,0.011613,-0.037550,0.043646
14.469804,607,0.059574,0.088662,0.052716,0.012627,-0.041157,0.033070
14.491897,608,0.140346,0.154582,0.040901,-0.000893,-0.040503,0.029353
14.514092,609,0.159418,-0.015765,-0.051244,-0.007995,-0.033423,0.014658
14.536075,610,0.188047,0.047844,-0.139465,-0.011375,-0.027853,-0.000751
14.559297,611,0.150908,-0.113616,-0.132982,-0.007684,-0.016790,-0.003370
14.580481,612,0.094984,0.181799,-0.025444,-0.008506,-0.006138,-0.002582
14.603043,613,0.085661,0.049635,0.045142,-0.020224,0.003860,-0.011869
14.625305,614,0.109625,-0.031238,-0.066521,-0.024456,0.015167,-0.026077
14.647174,615,0.049303,-0.025634,-0.041936,-0.020623,0.026641,-0.040011
14.670175,616,-0.045701,0.113979,-0.048481,-0.020102,0.034341,-0.050907
14.691902,617,-0.062042,0.084602,0.002087,-0.022754,0.038879,-0.041730
14.714014,618,-0.051813,0.129388,-0.022681,-0.030321,0.037403,-0.027992
14.736182,619,-0.126363,0.081041,0.039279,-0.036615,0.031011,-0.010872
14.759244,620,-0.052696,-0.091718,-0.052605,-0.044594,0.018060,-0.001446
14.781374,621,-0.057341,-0.067281,0.022421,-0.048612,0.007297,-0.001528
14.802948,622,0.065027,-0.150075,-0.050066,-0.042876,0.000494,-0.005922
14.825413,623,0.052354,-0.071099,-0.010846,-0.029815,-0.003768,-0.013512
14.847571,624,0.048005,-0.032047,-0.003397,-0.020772,0.000660,-0.018016
14.870101,625,0.021530,0.162841,-0.012113,-0.019296,0.007462,-0.023997
14.892485,626,-0.054632,0.089720,0.033697,-0.027541,0.012788,-0.031731
14.914225,627,-0.078050,-0.031546,0.077319,-0.036474,0.012620,-0.034029
14.936264,628,-0.115298,-0.154328,-0.010200,-0.031392,0.011799,-0.028946
14.958925,629,-0.067366,0.056000,0.022552,-0.023969,0.006882,-0.019325
14.980848,630,-0.073116,-0.004085,-0.039328,-0.024248,0.009012,-0.013999
15.002965,631,-0.136329,-0.024406,0.004596,-0.023183,0.007946,-0.005233
15.025618,632,-0.196838,-0.026586,0.050315,-0.022146,-0.001474,0.007139
15.047517,633,-0.132264,0.027596,-0.009995,-0.022506,-0.010408,0.011157
15.070697,634,-0.067716,-0.081443,-0.066620,-0.017701,-0.017865,0.019790
15.158303,635,-0.021571,-0.006301,-0.015143,-0.010488,-0.024668,0.028179
15.180421,636,-0.018580,-0.105004,-0.253187,-0.008503,-0.043139,0.042305
15.203092,637,0.030733,-0.272690,-0.125861,0.010539,-0.043956,0.041761
15.225080,638,0.020505,-0.337362,-0.071364,0.036138,-0.045189,0.037182
15.247889,639,-0.156735,-0.293947,-0.038549,0.061815,-0.050760,0.023320
15.269841,640,-0.213789,-0.562052,-0.136455,0.100031,-0.063578,0.026025
15.292469,641,-0.393708,-0.506584,-0.336920,0.159113,-0.094338,0.038831
15.314295,642,-0.591735,-0.553625,-0.108587,0.224146,-0.141077,0.059615
15.336595,643,-0.697481,-1.149045,-0.244256,0.305372,-0.204566,0.087261
15.359663,644,-0.402062,-1.004092,-0.408618,0.409524,-0.279574,0.109972
15.380731,645,-0.509834,0.650778,0.434841,0.454063,-0.345766,0.126049
15.403156,646,-0.050755,-0.185780,0.046642,0.445541,-0.394434,0.129801
15.425594,647,0.096103,-0.921977,-0.598499,0.482397,-0.419625,0.118448
15.447271,648,0.087002,0.573913,-0.210713,0.514772,-0.432653,0.088793
15.471424,649,-0.070532,1.760829,0.735076,0.429627,-0.435079,0.073781
15.492650,650,0.358669,0.336948,-0.069112,0.325555,-0.413913,0.083826
15.514317,651,0.466266,-0.425838,-0.504375,0.298159,-0.382199,0.095046
15.536572,652,0.331681,0.822391,-0.099815,0.286325,-0.348899,0.093314
15.558668,653,0.092688,2.090390,0.969687,0.176507,-0.305735,0.114116
15.580867,654,0.598958,0.513386,-0.042744,0.046457,-0.248888,0.125383
15.603438,655,0.570236,-0.237719,-0.453465,0.004147,-0.190432,0.125116
15.625420,656,0.537436,-0.009853,-0.124674,0.010405,-0.139954,0.113908
15.647541,657,0.355013,0.714869,0.563819,-0.019393,-0.088300,0.092699
15.670027,658,0.414891,0.332041,0.293216,-0.073773,-0.028779,0.078088
15.692610,659,0.360249,-0.259067,-0.077944,-0.098650,0.021566,0.058548
15.714344,660,0.255087,-0.370215,0.016028,-0.085287,0.053113,0.037619
15.736503,661,0.060297,-0.047290,0.297674,-0.069112,0.074007,0.023227
15.759184,662,0.077993,0.037038,0.321206,-0.072441,0.089198,0.012145
15.781990,663,0.149350,-0.313913,0.081710,-0.070444,0.102636,0.002432
15.803499,664,0.138541,-0.424083,-0.067128,-0.046094,0.117139,-0.019626
15.825926,665,0.031299,-0.086525,0.209280,-0.017548,0.122599,-0.033330
15.847680,666,-0.075543,-0.038279,0.205772,-0.005014,0.124318,-0.033296
15.870107,667,-0.032277,-0.223462,0.126349,0.008672,0.118505,-0.027616
15.891974,668,-0.081339,-0.058516,0.167282,0.014651,0.110226,-0.029469
15.914394,669,-0.084962,0.124426,0.130888,0.008075,0.103835,-0.042008
15.936777,670,-0.064036,-0.102606,0.031627,0.000402,0.098098,-0.061259
15.959150,671,-0.181626,0.230046,0.052210,-0.004925,0.088510,-0.061837
15.980986,672,-0.346305,1.013667,0.555028,-0.049701,0.078025,-0.055290
16.003611,673,-0.366686,0.947319,0.448049,-0.148915,0.055841,-0.050675
16.025490,674,-0.235848,0.374548,0.015940,-0.248130,0.025637,-0.051754
16.047645,675,-0.083114,-0.778605,-0.646167,-0.268036,-0.015121,-0.051562
16.070050,676,0.041000,-0.751699,-0.379135,-0.217229,-0.047022,-0.048454
16.092529,677,0.026067,-0.364717,-0.029742,-0.151924,-0.062757,-0.031067
16.163866,678,0.013459,-0.020541,0.013449,-0.124094,-0.066474,-0.017895
16.180574,679,0.643729,-0.904866,-0.281827,0.004361,-0.027470,0.021242
16.203098,680,0.057802,0.161791,0.196586,0.014520,-0.012800,0.015839
16.225616,681,0.028847,0.299535,0.270322,-0.003102,0.001869,0.010612
16.247416,682,0.044573,-0.088014,-0.048528,-0.023309,0.017925,0.004243
16.270000,683,0.055386,-0.229430,-0.186092,-0.017706,0.028578,-0.008053
16.292194,684,-0.067434,0.084911,-0.074787,-0.001583,0.035958,-0.023344
16.314236,685,-0.089251,0.265116,0.132764,-0.006944,0.038986,-0.021213
16.336318,686,-0.101583,0.159693,0.028900,-0.019184,0.041471,-0.005623
16.359270,687,-0.155301,0.093102,0.002585,-0.030526,0.030087,-0.000053
16.380655,688,0.008801,-0.069791,-0.072400,-0.033966,0.017924,0.000769
16.403129,689,-0.016795,-0.199060,-0.125598,-0.024900,0.013419,0.013418
16.425777,690,-0.077527,-0.048514,-0.053421,-0.015070,0.002599,0.013361
16.447834,691,-0.057344,0.062190,0.073843,-0.017578,-0.011981,0.004797
16.469980,692,0.024333,0.003490,-0.011818,-0.022794,-0.021325,-0.007910
16.492704,693,-0.006938,0.007318,0.089647,-0.028776,-0.022968,-0.013236
16.514002,694,0.063819,-0.162178,-0.053009,-0.025713,-0.023212,-0.018973
16.537723,695,0.045580,-0.013786,-0.049908,-0.012769,-0.017719,-0.024265
16.558997,696,0.058598,-0.024285,-0.084707,-0.006018,-0.005758,-0.026152
16.580852,697,-0.005569,0.056074,0.003703,-0.004408,0.006614,-0.018395
16.603322,698,-0.069253,0.024234,0.081099,-0.009191,0.016034,-0.010857
16.625607,699,-0.042368,-0.036856,0.024076,-0.007749,0.019397,0.002222
16.647846,700,-0.093315,-0.113062,-0.110073,-0.001601,0.015790,0.005939
16.670311,701,-0.061386,-0.039192,-0.050552,0.011148,0.011285,0.014084
16.692670,702,-0.114219,0.024402,-0.032818,0.017429,-0.000357,0.025502
16.714643,703,-0.048743,0.148090,0.047670,0.013579,-0.011497,0.028210
16.736633,704,0.032334,0.009135,-0.053797,0.004513,-0.015926,0.019034
16.758865,705,0.036777,-0.000594,0.005876,-0.000571,-0.014861,0.013750
16.780794,706,0.066012,0.077594,0.027267,-0.004421,-0.010022,0.013262
16.803431,707,0.059925,0.027229,-0.037791,-0.008272,-0.001668,0.013639
16.825696,708,0.047601,0.049248,0.081948,-0.011768,0.005712,0.008121
16.847894,709,0.049398,-0.050503,0.004258,-0.013321,0.013900,0.004596
16.870335,710,-0.007819,-0.004817,-0.017833,-0.007751,0.024719,0.001400
16.892260,711,-0.041050,0.054779,0.063819,-0.010369,0.029802,0.000828
16.914490,712,-0.035225,0.060263,0.070529,-0.018648,0.031110,0.002188
16.936544,713,0.017594,-0.061981,-0.031204,-0.017883,0.030288,-0.004858
16.959147,714,0.100417,-0.136962,-0.064703,-0.010502,0.037669,-0.008708
16.981036,715,0.031832,-0.122542,-0.015282,0.004355,0.045536,-0.015065
17.003327,716,-0.040224,0.129511,0.116667,0.010225,0.054545,-0.008673
17.025579,717,-0.021766,0.046438,0.029086,0.004378,0.059083,0.004243
17.047836,718,0.036179,-0.035852,-0.022571,0.003856,0.059737,0.016782
17.070202,719,0.029616,-0.136154,-0.056843,0.008772,0.061045,0.019644
17.092875,720,0.028122,-0.014710,-0.030096,0.012378,0.059047,0.014351
17.171868,721,-0.001635,-0.008424,-0.021169,0.018637,0.054786,0.012464
17.192188,722,-0.254012,-0.008695,0.011141,0.019239,0.023648,0.002200
17.214353,723,-0.128967,-0.022797,-0.047155,0.015717,0.008734,0.001083
17.236930,724,-0.092136,0.047691,0.047496,0.011011,-0.005115,0.003954
17.259103,725,-0.045514,0.121956,0.038851,0.002656,-0.016590,0.007561
17.280766,726,-0.022401,-0.035381,-0.110973,0.000114,-0.024945,0.001991
17.303639,727,0.069532,0.123587,-0.022225,0.005441,-0.026995,0.008215
17.324611,728,0.075978,0.108598,-0.106623,0.008955,-0.022816,0.033538
17.347662,729,0.048958,0.022632,-0.013837,0.005152,-0.019377,0.050466
17.369496,730,0.103886,0.060111,-0.019137,-0.005141,-0.016182,0.043335
17.391876,731,0.120169,-0.084260,-0.026753,-0.009483,-0.011754,0.035357
17.414000,732,-0.049890,-0.094496,-0.174769,-0.010271,-0.011267,0.025116
17.436527,733,0.018982,0.040361,-0.023760,-0.011469,-0.016426,0.018399
17.458878,734,0.041319,-0.012642,0.042003,-0.014909,-0.019867,0.012744
17.480795,735,0.050856,-0.004607,-0.049682,-0.017502,-0.019380,0.008072
17.503682,736,0.064530,-0.011047,-0.007135,-0.020814,-0.015286,0.010203
17.523878,737,0.110043,-0.127402,-0.105813,-0.017861,-0.013643,0.011268
17.546821,738,0.105164,-0.049583,-0.094789,-0.008406,-0.008728,0.001959
17.568977,739,0.140036,0.162340,0.068381,-0.004851,0.001102,-0.000911
17.590876,740,0.105062,0.066443,-0.049849,-0.006738,0.013155,-0.000808
17.613294,741,0.117272,-0.071784,-0.125962,-0.006242,0.022164,-0.004744
17.635793,742,0.089875,0.017859,-0.107652,-0.000805,0.027901,-0.014869
17.657898,743,-0.015653,0.057427,-0.093031,0.002257,0.030031,-0.028145
17.680082,744,-0.004277,0.180858,0.100335,-0.005449,0.025769,-0.033252
17.702780,745,-0.001409,0.107442,-0.003728,-0.019703,0.021919,-0.026454
17.724441,746,-0.111098,0.392068,0.160975,-0.051040,0.019898,-0.025238
17.747504,747,-0.095199,-0.178600,-0.123605,-0.079032,0.015226,-0.034199
17.769319,748,-0.144713,-0.423817,-0.142984,-0.063841,0.005523,-0.043180
17.791316,749,0.076695,-0.423535,-0.179476,-0.028491,-0.008807,-0.056906
17.813496,750,0.704279,0.025786,-0.042345,-0.004135,-0.004060,-0.113388
17.835964,751,1.309127,0.383252,0.250278,-0.020089,0.052156,-0.203703
17.858181,752,1.933933,-0.219982,-0.363248,-0.043428,0.171123,-0.334829
17.880316,753,3.843865,0.267856,-0.347228,-0.052575,0.395961,-0.590289
17.903163,754,4.479108,0.954149,0.005913,-0.083376,0.807812,-0.817464
17.926030,755,2.284662,0.837085,-0.379657,-0.101231,1.312544,-0.769362
17.947499,756,-0.490758,-0.181247,-0.743908,-0.103340,1.595413,-0.664582
17.969319,757,-1.347680,-0.890590,-0.932005,-0.063248,1.662545,-0.640334
17.991397,758,-1.569935,-0.049446,-0.067292,-0.011885,1.594056,-0.590737
18.013578,759,-1.346401,0.415761,0.424297,-0.008002,1.465536,-0.516147
18.036095,760,-1.367960,-0.037670,0.233433,-0.030019,1.330380,-0.450877
18.058122,761,-1.869668,-0.516545,0.266833,-0.029003,1.157252,-0.377947
18.080311,762,-1.653490,-0.358757,0.320932,-0.014674,0.937386,-0.333855
18.102976,763,-0.539718,0.277316,0.573297,-0.035460,0.743530,-0.344919
18.186048,764,-0.182896,-0.039476,0.048309,-0.057154,0.617608,-0.328073
18.213563,765,-4.538871,-0.872358,1.596898,0.031685,0.031989,-0.037668
18.235938,766,-1.675970,0.104455,0.796181,0.028378,-0.122786,0.059781
18.258265,767,-1.546626,-0.019906,0.608699,0.012200,-0.293131,0.158707
18.280354,768,-1.458563,-0.317830,0.335399,0.011567,-0.464531,0.263814
18.303669,769,-1.168308,-0.242372,0.203604,0.030572,-0.623452,0.358866
18.325420,770,-1.216058,-0.199998,0.264888,0.049258,-0.761427,0.441628
18.347867,771,-0.927128,-0.092819,0.096547,0.063376,-0.901365,0.518049
18.369500,772,-0.658690,-0.163581,-0.134322,0.068250,-1.007593,0.566848
18.391870,773,-0.283480,-0.129682,-0.243480,0.077499,-1.079733,0.596387
18.414044,774,0.044694,-0.038391,-0.342280,0.088886,-1.111970,0.605575
18.436407,775,0.267981,0.058322,-0.203010,0.094378,-1.110906,0.608603
18.458766,776,0.266464,-0.249389,-0.291292,0.102958,-1.090634,0.590905
18.480825,777,0.385734,-0.050718,-0.296343,0.119520,-1.056136,0.559358
18.503358,778,0.725042,0.159071,-0.092259,0.125267,-0.999922,0.524227
18.525395,779,0.690007,-0.125549,-0.337673,0.128549,-0.926553,0.495043
18.548095,780,0.765690,-0.429918,-0.466873,0.161338,-0.834831,0.463352
18.569728,781,0.921762,0.132523,-0.181671,0.193499,-0.749334,0.434146
18.592063,782,0.881937,0.217791,-0.041396,0.196322,-0.655968,0.386742
18.614088,783,1.010363,-0.115544,-0.066560,0.192627,-0.555968,0.326775
18.636654,784,0.948729,-0.085668,-0.105050,0.196332,-0.444904,0.266503
18.658789,785,0.918903,0.289189,0.001591,0.192880,-0.337034,0.207682
18.680974,786,0.885603,0.076294,-0.086597,0.182164,-0.232990,0.150413
18.703708,787,0.764332,0.040116,-0.036767,0.180484,-0.128566,0.098714
18.725639,788,0.638751,0.333239,-0.033033,0.174625,-0.036920,0.052543
18.748063,789,0.351165,0.446503,0.210223,0.144154,0.048001,0.017291
18.769931,790,0.295327,-0.036501,-0.177873,0.120041,0.100964,-0.010694
18.792575,791,0.173476,0.124396,-0.141948,0.116035,0.134565,-0.037059
18.815205,792,0.087103,0.458124,0.143752,0.092744,0.155570,-0.063180
18.836989,793,0.152263,0.212274,0.064437,0.063571,0.167942,-0.067528
18.859025,794,-0.033988,-0.015648,-0.106367,0.049856,0.171793,-0.062479
18.880846,795,-0.102685,0.067808,0.083136,0.033877,0.160486,-0.068326
18.903591,796,-0.076361,-0.168138,-0.036406,0.028174,0.141722,-0.076571
18.925421,797,-0.045745,-0.219302,-0.054240,0.039758,0.123856,-0.081098
18.948091,798,-0.198985,-0.123313,0.062997,0.048801,0.099078,-0.093660
18.969840,799,-0.106335,-0.379845,-0.195934,0.072052,0.074988,-0.105778
18.991978,800,-0.058197,-0.558569,-0.260349,0.112895,0.055292,-0.113189
19.014391,801,0.003863,-0.650729,-0.123076,0.174657,0.039858,-0.124507
19.036997,802,-0.038649,-1.074869,-0.086257,0.266957,0.028273,-0.120414
19.059119,803,0.024542,-1.605580,-0.162706,0.392669,0.013493,-0.126905
19.081056,804,0.020369,-2.246536,-0.375019,0.562357,-0.007546,-0.124675
19.104025,805,0.250906,-1.268672,-1.120060,0.759349,-0.033911,-0.094021
19.125401,806,-0.583675,1.635621,0.294577,0.861100,-0.067078,-0.045268
19.191575,807,-0.137124,0.530015,0.331308,0.809980,-0.085564,-0.029711
19.213028,808,0.135572,-0.558443,-0.812055,0.486930,-0.115957,0.046936
19.235627,809,-0.146625,-1.670651,-0.437628,0.594798,-0.157235,0.051174
19.257983,810,0.087342,-2.371581,-0.579003,0.729014,-0.200233,0.030563
19.280050,811,0.673931,-2.146887,-1.690390,0.881664,-0.217914,-0.003212
19.302872,812,0.640681,-0.038095,-2.519999,1.092330,-0.227807,-0.023661
19.324713,813,-0.669817,2.347739,0.966671,1.185912,-0.221358,-0.070841
19.347135,814,-0.604181,3.002941,3.577249,0.962492,-0.218074,-0.092668
19.369521,815,-0.178940,0.455624,1.028806,0.649423,-0.216342,0.006650
19.391486,816,0.882033,-0.412384,-2.714530,0.518638,-0.217784,0.023871
19.413849,817,0.338727,0.808164,-1.625704,0.609570,-0.220845,-0.036760
19.436349,818,0.171940,1.565720,1.094237,0.575235,-0.192626,-0.076464
19.458653,819,0.790689,0.779463,0.486151,0.461877,-0.129463,-0.079954
19.480630,820,0.689085,-0.619502,-1.262037,0.419761,-0.049046,-0.094308
19.503108,821,0.582384,-1.129624,-1.692495,0.487810,0.017245,-0.170350
19.525227,822,0.540549,-0.393335,-1.016522,0.605232,0.061878,-0.239207
19.547046,823,0.038197,1.684996,1.018421,0.657001,0.129512,-0.207325
19.569351,824,-0.368691,1.934137,2.103127,0.574448,0.201934,-0.131207
19.591590,825,-1.155321,1.397452,2.610853,0.356272,0.242798,-0.033711
19.613710,826,-0.734701,0.034252,0.591600,0.106756,0.220766,0.013837
19.636201,827,-0.076665,-0.117546,-0.803068,-0.024348,0.169142,-0.008180
19.658559,828,-0.054115,-0.389154,-0.781746,-0.011632,0.112163,-0.042391
19.680736,829,-0.290903,-0.411091,-0.443778,0.038505,0.045841,-0.081236
19.703481,830,-0.743610,1.358826,1.183565,0.010136,-0.028182,-0.144268
19.724946,831,-0.450306,1.814180,1.890297,-0.111229,-0.075429,-0.160624
19.747111,832,-0.062514,1.087023,0.904448,-0.251035,-0.094080,-0.151014
19.769686,833,-0.011140,0.617051,0.407631,-0.385236,-0.083316,-0.153700
19.791907,834,0.286274,0.134355,-0.008958,-0.478812,-0.064238,-0.170744
19.814714,835,0.310733,-0.153050,-0.477933,-0.494381,-0.036783,-0.179604
19.836208,836,-0.014806,0.360505,0.360540,-0.479746,-0.004581,-0.165674
19.858438,837,-0.146934,0.419858,0.884477,-0.499588,0.012987,-0.137578
19.880550,838,-0.221640,-0.222246,0.172108,-0.531969,0.021266,-0.102436
19.903858,839,0.114227,-0.405862,-0.476020,-0.530848,0.031266,-0.091240
19.925014,840,-0.081762,0.528411,0.193961,-0.497727,0.047900,-0.071921
19.947200,841,-0.279563,0.832666,0.602237,-0.511588,0.053587,-0.042482
19.969738,842,-0.366939,1.317481,1.055841,-0.606942,0.055748,0.017340
19.991802,843,-0.260727,1.718754,1.231865,-0.766113,0.061353,0.086016
20.014006,844,0.354292,0.663828,0.285260,-0.918956,0.087719,0.123798
20.036311,845,0.615554,-0.056449,-0.565985,-0.983059,0.118724,0.119682
20.058383,846,0.857106,-0.922120,-1.005382,-0.962021,0.162157,0.105145
20.080572,847,0.990104,-1.792304,-1.558448,-0.832298,0.209684,0.052318
20.103208,848,0.806511,-1.611169,-1.185881,-0.633372,0.260430,0.005846
20.125100,849,0.521882,-0.874468,-0.149172,-0.439263,0.315547,-0.012217
20.192879,850,0.044647,-0.039602,0.062428,-0.373189,0.345785,-0.020155
20.214057,851,0.392137,4.268102,2.894178,-0.504935,0.487479,-0.001040
20.236334,852,0.435605,-0.090065,-0.561107,-0.707499,0.535393,-0.004102
20.258502,853,0.182535,-1.869066,-2.051471,-0.697023,0.554812,-0.023247
20.280737,854,-0.085288,-2.176647,-1.492116,-0.519119,0.528447,-0.070396
20.303768,855,-0.317960,-0.867113,-0.248843,-0.331893,0.463322,-0.100901
20.325430,856,-0.083596,-0.038653,0.376563,-0.248305,0.401148,-0.112423
20.347358,857,0.057397,-0.467116,0.260782,-0.204537,0.357773,-0.131417
20.369817,858,-0.179871,-0.974396,-0.278449,-0.142413,0.317259,-0.163729
20.391867,859,-0.211124,-0.529801,-0.057825,-0.072640,0.262704,-0.188145
20.414156,860,-0.151849,-0.269397,0.328945,-0.026531,0.214738,-0.197313
20.436374,861,-0.149100,-0.299221,0.601645,-0.000064,0.172538,-0.204147
20.458643,862,-0.220843,-0.941062,0.173508,0.053204,0.133332,-0.189950
20.480667,863,-0.193538,-0.957171,0.479717,0.173433,0.074765,-0.147577
20.504850,864,0.016609,-0.896822,1.161913,0.320149,-0.005223,-0.078556
20.525353,865,0.189433,-0.801409,1.565772,0.402174,-0.064907,-0.061401
20.549222,866,0.375618,-0.093350,1.856232,0.423925,-0.099517,-0.098487
20.569777,867,0.273153,0.818653,2.272247,0.416060,-0.116151,-0.110525
20.592079,868,-0.018690,0.946046,2.748842,0.390229,-0.158929,-0.073986
20.614098,869,0.105417,-0.018459,2.334168,0.305429,-0.209650,-0.040784
20.636489,870,0.327980,-0.744732,1.265611,0.249863,-0.261027,-0.018685
20.658875,871,0.198765,-0.337112,1.566931,0.254069,-0.313392,-0.021792
20.681144,872,0.053967,0.030168,2.058165,0.241671,-0.365457,-0.044788
20.703220,873,0.094717,-0.128002,1.888079,0.226356,-0.403397,-0.079420
20.725549,874,-0.131561,0.442917,2.028951,0.211418,-0.418554,-0.102034
20.747455,875,-0.275641,0.719176,2.207601,0.171764,-0.417078,-0.063939
20.770778,876,-0.560257,0.471529,1.355935,0.143805,-0.408851,0.000184
20.791977,877,-0.733206,0.577592,1.265777,0.133961,-0.404839,0.032190
20.813996,878,-0.775571,2.360375,1.060316,0.108591,-0.394840,0.069792
20.836338,879,-0.598403,3.090265,-1.327757,0.155430,-0.390823,0.115281
20.858415,880,-1.163006,3.150660,-0.874455,0.303498,-0.366189,0.056947
20.880747,881,-0.657642,4.796213,2.583611,0.287949,-0.303993,0.043362
20.903275,882,-0.293752,3.127667,0.215598,0.141318,-0.223843,0.202656
20.925665,883,-1.570216,0.954532,-2.188941,0.008457,-0.142134,0.271766
20.948308,884,-1.317091,-0.748472,-1.442917,-0.079348,-0.115062,0.220653
20.969837,885,-0.279050,-2.026765,-3.565312,-0.087914,-0.123039,0.126534
20.992147,886,-0.339362,-2.397506,-4.417804,0.095164,-0.116103,0.034238
21.014316,887,-0.880366,-1.525636,-3.073343,0.365862,-0.150486,0.035083
21.036691,888,-0.608305,-0.648411,-2.061731,0.535980,-0.228556,0.034423
21.060442,889,0.376878,0.467632,-1.135451,0.543454,-0.275294,0.026734
21.080920,890,0.571093,0.814686,-0.682031,0.441819,-0.264606,0.071365
21.103345,891,0.625337,1.027059,-0.228711,0.201811,-0.250502,0.168511
21.125231,892,0.585512,0.363642,-0.053751,-0.134916,-0.229319,0.256394
21.203265,893,0.254329,-0.549297,-0.650300,-0.464021,-0.201007,0.273613
21.224737,894,3.727108,-12.215420,-18.471680,-0.512700,-0.145284,-0.348773
21.246883,895,-0.023315,-1.171537,-3.154697,-0.414569,-0.075631,-0.331298
21.269430,896,-0.292728,-0.282652,-2.685330,-0.437832,-0.031596,-0.204353
21.291656,897,-0.287378,-0.823999,-3.696418,-0.530985,0.024070,-0.188199
21.313910,898,0.197521,-1.744101,-4.958479,-0.599621,0.070809,-0.135834
21.336263,899,0.117425,-1.743118,-5.349682,-0.581878,0.090673,-0.000732
21.358356,900,0.007765,-1.794721,-5.371447,-0.471375,0.094657,0.066833
21.380415,901,-0.053838,0.128283,-3.322274,-0.405265,0.111180,0.019950
21.402868,902,0.113351,2.907826,0.563021,-0.532390,0.166065,-0.022487
21.424991,903,0.254240,3.275030,0.973068,-0.758197,0.247935,0.008828
21.447643,904,-0.692362,-0.132839,-1.757311,-0.864287,0.300933,0.128132
21.469883,905,-1.643033,0.484327,-0.519398,-0.657239,0.234946,0.270440
21.491841,906,-1.056458,1.905560,2.222127,-0.357606,0.082574,0.326807
21.513933,907,0.008129,4.207924,3.936743,-0.161355,-0.017481,0.276618
21.536504,908,0.563516,4.503851,4.065986,-0.099940,-0.018002,0.210479
21.558491,909,0.558233,1.784253,2.842454,-0.108271,0.021168,0.116914
21.580438,910,0.210291,-0.389070,1.915485,-0.122823,0.054058,0.018067
21.602850,911,0.097836,0.311421,3.301814,-0.177765,0.056433,0.017176
21.625094,912,0.150921,-0.773351,3.002580,-0.362294,0.066575,0.031881
21.647256,913,-0.029320,-1.194770,3.109784,-0.527283,0.088024,0.052290
21.669661,914,-0.010108,-2.061292,2.475308,-0.632722,0.100339,0.052047
21.691880,915,-0.021964,-1.930112,1.321808,-0.594716,0.090097,0.124555
21.713871,916,-0.278265,-2.400636,1.645800,-0.403445,0.053733,0.213784
21.736170,917,-0.193515,-0.210661,2.612251,-0.234444,0.022695,0.205605
21.759247,918,0.180629,1.451327,3.040151,-0.265101,0.034746,0.192653
21.780929,919,0.329479,-0.960559,1.222435,-0.313504,0.069765,0.203040
21.803131,920,0.208349,-2.035770,-0.240107,-0.151292,0.086364,0.198978
21.825935,921,-0.133834,0.042232,1.022437,0.104541,0.075044,0.116293
21.847456,922,-0.130156,1.828538,2.539948,0.151072,0.060019,0.120519
21.869682,923,-0.071912,0.384652,1.463439,0.111593,0.046280,0.225859
21.891738,924,-0.136144,-1.238642,0.264545,0.134551,0.000195,0.280469
21.913921,925,0.031600,-1.504855,0.090739,0.241787,-0.060503,0.229023
21.936174,926,0.207186,-1.377029,0.484020,0.348833,-0.107277,0.148101
21.958472,927,0.402148,-2.032830,0.012586,0.453106,-0.120415,0.124289
21.981541,928,0.350658,-2.512835,-1.043111,0.643699,-0.128672,0.102464
22.002784,929,0.196566,-1.542184,-1.374556,0.889495,-0.144907,0.070924
22.025061,930,-0.305208,1.511380,0.826318,0.975617,-0.140403,0.059885
22.047425,931,0.050677,1.608993,1.208450,0.852450,-0.127587,0.034260
22.069816,932,0.101253,-0.018753,-0.708647,0.731854,-0.105107,0.030677
22.091861,933,-0.287468,1.966832,0.440026,0.644989,-0.096309,0.019724
22.114086,934,-0.056834,1.782470,0.755448,0.456680,-0.077812,-0.011763
22.137272,935,0.302864,-0.183768,-0.513071,0.324366,-0.053822,-0.012261
22.214546,936,0.091067,-0.103824,-0.191730,0.312160,-0.039320,-0.016012
22.236014,937,0.783828,1.422924,0.234071,0.226978,0.024737,-0.078642
22.258465,938,0.068129,0.639072,0.415445,0.194169,0.058936,-0.064589
22.280553,939,-0.218544,1.104729,0.765106,0.125425,0.081751,-0.023258
22.302918,940,0.030812,0.169307,0.061776,0.028885,0.096775,-0.013914
22.325068,941,0.213277,0.735273,-0.206523,-0.037683,0.110900,-0.017133
22.347472,942,0.091228,1.437045,0.702097,-0.114382,0.123516,-0.023547
22.369539,943,0.323049,2.108254,0.932680,-0.244328,0.138406,-0.031553
22.391607,944,1.539166,3.170346,1.614458,-0.475755,0.210946,-0.120380
22.413859,945,3.124450,0.655651,0.052881,-0.718162,0.394461,-0.233570
22.436214,946,1.545038,-1.203973,-0.948656,-0.737484,0.590967,-0.273366
22.458436,947,0.149902,-1.451293,-0.630670,-0.632801,0.704783,-0.295811
22.480831,948,-0.276529,0.318363,0.587521,-0.565359,0.728050,-0.318059
22.504133,949,0.018175,0.759546,0.799598,-0.602186,0.741898,-0.308842
22.525496,950,0.017732,-1.072586,-0.491671,-0.623031,0.749465,-0.309475
22.547366,951,-0.645599,-1.194467,-0.500122,-0.553490,0.720425,-0.283937
22.570485,952,-0.674525,-0.860698,0.034927,-0.472809,0.656120,-0.258863
22.591861,953,-0.622941,-0.948707,0.239010,-0.431399,0.591925,-0.267009
22.613993,954,-0.565510,-1.045299,0.122275,-0.376528,0.526011,-0.241142
22.636419,955,-0.875096,-0.615942,0.303977,-0.286492,0.439169,-0.164131
22.658439,956,-0.734254,-0.601693,0.349331,-0.226751,0.343971,-0.099484
22.680908,957,-0.396092,-1.346551,-0.446196,-0.156318,0.260247,-0.124662
22.703122,958,-0.499006,-0.745968,-0.227387,-0.051473,0.195039,-0.155133
22.725359,959,-0.776834,-0.029447,0.368229,0.007677,0.118964,-0.116205
22.747415,960,-0.598837,-0.240427,-0.094383,0.021317,0.035594,-0.068557
22.770758,961,-0.222939,-0.592736,-0.652182,0.055028,-0.034993,-0.072527
22.792802,962,-0.303504,0.359396,-0.084263,0.078306,-0.071735,-0.102669
22.815054,963,-0.152812,0.441574,-0.050034,0.079503,-0.094762,-0.085590
22.836445,964,-0.278433,0.360792,-0.179331,0.075097,-0.108855,-0.062403
22.858510,965,-0.188863,0.657495,0.119955,0.025405,-0.117791,-0.062165
22.880734,966,-0.068311,0.040894,-0.182121,-0.034506,-0.113010,-0.045688
22.903231,967,-0.188001,-0.431890,-0.457447,-0.035794,-0.104489,-0.021515
22.925257,968,-0.364749,-0.088303,-0.011196,-0.020916,-0.109407,-0.005174
22.947453,969,-0.128175,0.068569,0.138594,-0.033845,-0.112605,0.006678
22.970761,970,-0.324443,-0.294961,-0.141618,-0.039693,-0.113261,0.023855
22.991805,971,-0.331309,-0.322458,-0.130614,-0.021695,-0.125802,0.038092
23.013973,972,-0.289181,-0.024137,-0.028615,0.005723,-0.147387,0.046869
23.036403,973,-0.280828,-0.279620,-0.147493,0.047955,-0.169215,0.046915
23.058726,974,-0.324655,-0.141453,-0.044176,0.108634,-0.186261,0.021935
23.081031,975,-0.387803,0.369056,0.219190,0.142583,-0.204893,0.008098
23.103368,976,-0.246258,0.196762,0.031175,0.124680,-0.212595,0.042655
23.125414,977,-0.231353,-0.829210,-0.779295,0.133849,-0.218501,0.084636
23.147580,978,-0.358996,-0.825825,-0.775658,0.188902,-0.237133,0.130483
23.214614,979,-0.060565,-0.080231,-0.077286,0.208915,-0.253113,0.148904
23.236502,980,-1.544764,-0.089435,-0.910511,0.261233,-0.438652,0.201661
23.258783,981,-0.114490,0.238158,-0.189325,0.263589,-0.477733,0.187709
23.281183,982,0.024233,0.842177,0.250703,0.219154,-0.487489,0.152955
23.303097,983,0.099610,0.363361,-0.080578,0.155736,-0.471477,0.104786
23.325349,984,0.203149,-0.211177,-0.505100,0.119990,-0.444269,0.074922
23.347719,985,0.136252,-0.086364,-0.362962,0.114502,-0.416219,0.081362
23.370782,986,0.187410,0.354925,0.084606,0.089300,-0.381610,0.120655
23.392135,987,0.329973,-0.122557,-0.244194,0.057254,-0.339655,0.149673
23.414509,988,0.418144,-0.309977,-0.498667,0.066453,-0.295048,0.164442
23.436723,989,0.259244,0.159671,-0.017825,0.104207,-0.250308,0.158816
23.458797,990,0.190266,1.034399,0.531424,0.104912,-0.217940,0.160483
23.481136,991,0.362904,0.470247,0.049538,0.097976,-0.180378,0.151649
23.504512,992,0.426782,-0.265852,-0.590076,0.114193,-0.136460,0.105432
23.525916,993,0.354613,0.102033,-0.005524,0.126628,-0.099309,0.081642
23.547728,994,0.369933,-0.204853,0.085652,0.099608,-0.066287,0.097911
23.570792,995,0.277303,-0.393358,-0.139645,0.077880,-0.037658,0.121990
23.592156,996,0.468267,-0.393574,-0.216392,0.072154,-0.006767,0.092018
23.614395,997,0.283499,0.208902,0.142494,0.062637,0.034234,0.043359
23.636816,998,0.191098,0.343003,0.183616,0.050460,0.072583,0.020767
23.659360,999,-0.101497,0.188438,0.155018,0.040317,0.099248,0.039194
23.681304,1000,-0.399208,0.269548,0.289926,0.037255,0.093343,0.054600
23.703577,1001,-0.137430,0.133535,0.169849,0.025403,0.076298,0.039361
23.725999,1002,-0.114293,0.141818,0.265049,0.007455,0.062372,0.029612
23.747761,1003,-0.160973,-0.051658,0.234279,-0.022812,0.047367,0.040197
23.771081,1004,-0.073497,-0.327688,-0.000368,-0.042670,0.023931,0.054532
23.792721,1005,0.005116,-0.392940,-0.119048,-0.041033,0.000140,0.051781
23.815888,1006,0.057455,-0.174216,-0.038384,-0.026630,-0.018792,0.033328
23.837044,1007,0.105154,0.095561,0.055630,-0.005591,-0.023708,0.014157
23.859678,1008,0.084539,0.380829,0.056081,0.023593,-0.020213,-0.007984
23.881497,1009,-0.102363,0.566858,0.326810,0.039597,-0.015054,-0.015742
23.903794,1010,-0.226143,0.196483,0.357183,0.012362,-0.014366,-0.012112
23.925833,1011,0.007998,-0.230092,0.027587,-0.023458,-0.017563,0.009592
23.948067,1012,-0.019865,-0.508824,-0.173081,-0.014780,-0.026907,0.041088
23.971346,1013,-0.010939,-0.560357,-0.274201,0.014792,-0.051930,0.078140
23.992848,1014,0.122273,-0.572491,-0.441787,0.069582,-0.080149,0.098454
24.014987,1015,0.095266,0.187137,0.137169,0.110631,-0.107603,0.105455
24.036911,1016,0.135336,0.684266,0.449098,0.095233,-0.123582,0.078900
24.059427,1017,0.181066,0.591925,0.271248,0.049472,-0.122761,0.031285
24.081367,1018,0.236872,0.373531,0.162785,0.006757,-0.112520,-0.000273
24.103572,1019,0.221791,-0.033239,0.128175,-0.019823,-0.096097,-0.002491
24.126180,1020,0.160248,-0.063900,0.089969,-0.045852,-0.074959,-0.015621
24.148053,1021,0.216073,-0.372390,-0.011330,-0.064581,-0.048461,-0.031166
24.213450,1022,0.039053,-0.064767,-0.021519,-0.063516,-0.033548,-0.027594
24.237110,1023,-0.166531,-0.454107,-0.028229,0.030604,-0.015556,0.086301
24.259818,1024,0.160932,0.238606,0.098588,0.054341,-0.023419,0.099062
24.281731,1025,0.061043,0.472863,0.246398,0.077198,-0.028091,0.104045
24.303978,1026,0.180119,0.247121,0.230177,0.078020,-0.034240,0.103299
24.326213,1027,0.333967,0.057549,-0.014098,0.048229,-0.031288,0.062020
24.348124,1028,0.543449,-0.395136,-0.112785,0.014482,-0.008640,0.021940
24.371402,1029,0.315931,-0.512916,-0.315058,0.002857,0.011599,-0.010077
24.393124,1030,0.222333,-0.373057,-0.295975,0.010048,0.021262,-0.028816
24.414937,1031,0.221038,-0.210320,-0.338594,0.034612,0.022084,-0.052761
24.437223,1032,0.147415,0.356858,-0.037396,0.051667,0.031183,-0.082966
24.459779,1033,0.007858,0.684198,0.261800,0.043123,0.044621,-0.107821
24.481935,1034,-0.082447,0.718266,0.217041,0.012063,0.061254,-0.111271
24.504767,1035,-0.102741,0.293476,0.080251,-0.022958,0.074559,-0.105007
24.526039,1036,-0.269281,0.249843,0.126626,-0.056502,0.083735,-0.100641
24.548279,1037,-0.205167,-0.014239,0.128748,-0.096959,0.086965,-0.086747
24.571674,1038,-0.190472,-0.348204,-0.091151,-0.127041,0.083602,-0.061904
24.593200,1039,-0.287038,-0.481460,-0.067290,-0.121448,0.071473,-0.033848
24.614879,1040,-0.269384,-0.281384,-0.015686,-0.100808,0.053414,-0.003958
24.637309,1041,-0.196968,-0.159622,0.032376,-0.071912,0.025966,0.013341
24.659946,1042,-0.175888,0.002786,-0.040960,-0.025636,0.001598,0.008080
24.681963,1043,-0.167094,0.371258,0.160655,0.015776,-0.013483,0.003286
24.703997,1044,-0.125909,0.418522,0.359433,0.039541,-0.020883,0.000402
24.726241,1045,-0.060690,-0.017154,0.045477,0.025548,-0.025312,0.017746
24.748236,1046,0.061720,-0.168470,0.001554,-0.005490,-0.030529,0.041003
24.770883,1047,0.219801,-0.683726,-0.408940,-0.028197,-0.039949,0.058347
24.792884,1048,0.293444,-0.785818,-0.726018,-0.005845,-0.046208,0.049802
24.815963,1049,0.325110,-0.173814,-0.361472,0.046608,-0.042769,0.026899
24.837433,1050,0.057923,0.424104,0.135114,0.069500,-0.037443,0.015402
24.859828,1051,-0.055166,0.416955,0.167390,0.059838,-0.031873,-0.010275
24.882203,1052,0.063846,0.224015,0.026953,0.036298,-0.023671,-0.043686
24.903978,1053,0.063789,0.088730,-0.268837,0.019860,-0.012776,-0.062098
24.926338,1054,-0.031323,0.158353,-0.152242,0.011698,-0.002500,-0.068524
24.948572,1055,-0.189371,0.224812,0.236022,-0.022014,0.005032,-0.065635
24.971458,1056,-0.159096,-0.021998,0.343878,-0.071415,0.005721,-0.018174
24.993491,1057,-0.138452,-0.426780,0.096847,-0.088581,-0.001082,0.018087
25.015152,1058,-0.136700,-0.363799,0.170018,-0.075631,-0.012750,0.026181
25.037588,1059,-0.061786,-0.501023,0.064501,-0.032221,-0.025619,0.009091
25.059901,1060,-0.076564,0.008525,0.341800,0.040361,-0.029336,-0.000012
25.082193,1061,-0.155925,0.175039,0.467573,0.107339,-0.033708,0.003532
25.104151,1062,-0.082238,-0.225999,0.074929,0.148533,-0.034774,-0.006948
25.126487,1063,0.086362,-0.411818,0.022734,0.143646,-0.029281,-0.024346
25.148180,1064,0.232931,-0.936726,-0.456412,0.141271,-0.020516,-0.025822
25.215132,1065,0.006365,-0.144810,-0.110848,0.156236,-0.016666,-0.017266
25.237577,1066,-3.363772,-1.396209,-1.017526,0.252046,-0.317644,-0.056095
25.260004,1067,-0.490405,-0.439147,-0.218828,0.292260,-0.454791,-0.068399
25.281653,1068,-0.046141,-0.998018,-0.402768,0.368472,-0.514145,-0.055205
25.304110,1069,0.038716,-1.560264,-1.450981,0.505271,-0.533465,-0.044272
25.326492,1070,0.080829,-1.810464,-1.699048,0.732461,-0.541066,-0.047434
25.348264,1071,-0.005053,-1.303264,-0.728947,0.940164,-0.537848,-0.035832
25.370634,1072,0.315737,-0.912813,0.023332,1.082333,-0.523699,-0.004384
25.392910,1073,0.806095,-1.437732,-0.392446,1.202598,-0.471125,0.019972
25.415237,1074,1.093562,-1.685348,-0.983199,1.361989,-0.397865,0.018856
25.437715,1075,1.536017,-0.811140,-1.118757,1.552753,-0.303578,-0.031728
25.459607,1076,1.559939,0.836132,0.135900,1.687077,-0.169431,-0.154823
25.481857,1077,1.726883,1.963415,2.363546,1.628907,0.044942,-0.401959
25.504265,1078,1.873155,1.185536,2.487979,1.383342,0.301416,-0.600331
25.526661,1079,1.474780,0.457056,-0.305478,1.138153,0.525521,-0.585392
25.548602,1080,1.022143,0.719193,-2.312469,1.123343,0.649800,-0.448303
25.571247,1081,-0.358805,0.700664,-0.629931,1.159641,0.668808,-0.353252
25.593251,1082,-0.844086,1.435556,1.779124,1.035471,0.625410,-0.313022
25.615478,1083,-0.013285,1.299251,0.981437,0.802846,0.579009,-0.296356
25.638000,1084,0.053591,1.900081,-1.195479,0.670690,0.548806,-0.269181
25.659847,1085,-1.461321,2.500964,0.768491,0.589008,0.497592,-0.261989
25.681928,1086,-1.583578,2.169709,2.350680,0.353540,0.398390,-0.255854
25.704236,1087,-0.948013,0.761889,1.183220,0.087372,0.289268,-0.235312
25.726441,1088,-0.423207,0.079669,-0.128206,-0.068220,0.215147,-0.215727
25.749271,1089,-0.559774,-0.385952,-0.093066,-0.118456,0.155083,-0.192646
25.771060,1090,-0.681676,-0.868585,0.135210,-0.125623,0.084256,-0.150302
25.794197,1091,-0.081498,-0.841979,-0.026110,-0.109840,0.028099,-0.133060
25.816483,1092,0.565993,-0.916063,-0.242482,-0.060305,0.020366,-0.168092
25.837805,1093,0.805785,-0.836828,-0.650213,0.022299,0.053147,-0.234613
25.861076,1094,0.531704,-0.313041,-0.705505,0.156822,0.087370,-0.284480
25.882443,1095,-0.186581,0.356093,0.132552,0.289922,0.101597,-0.275108
25.904256,1096,-0.646433,1.229172,1.969551,0.317707,0.081491,-0.218337
25.926545,1097,-0.400698,1.182080,1.774899,0.209779,0.060709,-0.151065
25.949327,1098,0.144054,0.145102,0.110886,0.066464,0.057004,-0.097321
25.971001,1099,0.007772,-0.368794,-0.598111,0.008489,0.053399,-0.053883
25.993463,1100,0.223605,-0.766553,-1.071656,0.015070,0.035702,-0.031698
26.015579,1101,0.233684,-0.621538,-1.042661,0.082215,0.013709,-0.036104
26.037886,1102,0.041080,0.056271,-0.231492,0.164165,-0.001070,-0.047035
26.060601,1103,-0.213498,0.703463,1.010431,0.164026,-0.006882,-0.066454
26.082229,1104,-0.116983,0.787745,0.969780,0.090030,-0.002099,-0.081062
26.104625,1105,0.038902,0.209299,-0.272319,0.014101,0.014570,-0.100909
26.126476,1106,-0.196469,0.198150,-0.607688,0.003725,0.026533,-0.108812
26.148746,1107,-0.336260,-0.009470,0.004940,0.006510,0.029319,-0.108645
26.215965,1108,-0.020627,-0.002827,0.092871,-0.003766,0.029152,-0.100325
26.237955,1109,2.675731,-0.969320,-2.282352,0.072114,0.235884,-0.057922
26.260728,1110,1.428091,-0.141446,-0.305892,0.188339,0.354952,-0.224552
26.282384,1111,0.588208,0.668016,1.351033,0.221983,0.463553,-0.295903
26.304781,1112,-0.098279,0.224718,0.256012,0.198692,0.520534,-0.319217
26.326750,1113,-0.887283,-0.295394,-0.025767,0.193609,0.508239,-0.320938
26.348726,1114,-1.447445,-0.426145,0.198986,0.168831,0.424948,-0.227045
26.371405,1115,-1.623141,-0.483721,-0.235248,0.138111,0.286354,-0.097188
26.393626,1116,-1.853870,-0.343800,-0.292286,0.122126,0.115360,0.027059
26.415604,1117,-1.858010,0.436653,0.235806,0.106113,-0.061620,0.123224
26.437823,1118,-1.738421,1.755777,1.242771,0.012220,-0.247572,0.204187
26.460463,1119,-1.015132,1.601504,0.565258,-0.141680,-0.388597,0.224103
26.482190,1120,-1.255787,1.971970,0.858989,-0.298971,-0.494468,0.230645
26.504768,1121,-1.565958,3.155227,2.717345,-0.549354,-0.593879,0.313577
26.526846,1122,-1.410526,3.158136,2.904409,-0.942117,-0.675405,0.418691
26.550639,1123,0.218701,0.514663,-1.310776,-1.286899,-0.716603,0.471299
26.570788,1124,0.187953,0.016099,-1.854007,-1.345409,-0.712585,0.494361
26.592934,1125,0.474077,-0.358247,-1.132454,-1.308502,-0.686121,0.494805
26.615401,1126,0.842655,-0.486071,-0.822523,-1.245941,-0.644575,0.461458
26.637689,1127,1.041537,-0.124735,-0.565650,-1.170163,-0.561316,0.453902
26.659807,1128,1.155972,-0.784062,-1.171737,-1.054710,-0.458807,0.424683
26.682117,1129,0.721836,-0.785723,-0.739930,-0.876024,-0.351459,0.376613
26.704498,1130,0.526911,-0.029608,0.479080,-0.751517,-0.263620,0.349072
26.727085,1131,0.637263,-0.169012,0.899499,-0.737806,-0.186754,0.333333
26.748626,1132,1.185185,-1.106667,-0.357184,-0.751916,-0.107646,0.316250
26.770953,1133,0.859714,-1.016106,-0.970881,-0.698206,-0.034199,0.286853
26.793811,1134,0.506234,-0.212785,-0.096907,-0.653332,0.023250,0.220186
26.816398,1135,0.651330,-0.331011,-0.211659,-0.627691,0.066515,0.162905
26.837517,1136,0.457859,-0.198407,-0.547147,-0.582961,0.099538,0.119484
26.860121,1137,0.087252,0.429541,0.098426,-0.545554,0.132394,0.081003
26.881969,1138,0.151833,0.381196,0.263922,-0.551002,0.155830,0.040990
26.904299,1139,0.132789,-0.075114,-0.095348,-0.547058,0.175827,0.012471
26.926767,1140,0.011138,0.064302,0.066526,-0.542635,0.195112,0.009576
26.948778,1141,-0.069666,-0.029719,0.458694,-0.564328,0.205598,0.025410
26.970978,1142,0.111760,-0.843679,-0.192346,-0.573760,0.218138,0.052668
26.994115,1143,0.136633,-1.064467,-0.496829,-0.515414,0.228136,0.067344
27.015364,1144,0.086046,-0.830499,-0.051700,-0.435652,0.229335,0.068919
27.037611,1145,0.038283,-0.130988,0.120170,-0.374167,0.229878,0.064814
27.059976,1146,0.170244,0.174259,0.030793,-0.318484,0.230532,0.035519
27.082230,1147,0.099847,0.269662,0.210801,-0.250839,0.238533,-0.000133
27.104587,1148,-0.101035,-0.104135,0.270563,-0.204101,0.239187,0.002119
27.126648,1149,0.056196,-0.401009,-0.060824,-0.201409,0.227468,0.028096
27.148635,1150,0.210022,-0.542789,-0.302424,-0.209582,0.206162,0.052430
27.228643,1151,0.054377,-0.126943,-0.122098,-0.204690,0.193511,0.031564
27.249271,1152,-0.517698,0.575611,-0.280175,-0.211469,0.121614,-0.028541
27.271298,1153,-0.273232,0.290702,0.196065,-0.239166,0.095057,-0.038950
27.293534,1154,-0.299524,0.392835,0.336417,-0.257930,0.071133,-0.038239
27.315784,1155,-0.419632,0.228623,0.562104,-0.292296,0.051060,-0.034012
27.337815,1156,-0.220083,-0.387271,0.099465,-0.332088,0.032782,-0.048081
27.360944,1157,-0.231220,-0.644295,0.031730,-0.328927,0.011232,-0.038627
27.382287,1158,-0.248973,-0.492657,0.259836,-0.301862,-0.009831,-0.015347
27.404667,1159,-0.116405,-0.180453,0.223664,-0.277472,-0.025678,0.004216
27.426985,1160,0.030012,-0.195641,0.196421,-0.244860,-0.035845,0.009142
27.449076,1161,-0.028795,-0.156294,0.069961,-0.199975,-0.036200,-0.005979
27.471456,1162,-0.081206,0.082691,0.271877,-0.133784,-0.034892,-0.018773
27.493994,1163,-0.069131,0.118783,0.305332,-0.100785,-0.031154,-0.035177
27.515704,1164,0.061104,-0.132234,0.208648,-0.106313,-0.018749,-0.028408
27.537738,1165,0.083366,-0.354120,-0.269653,-0.121581,-0.008753,-0.017733
27.560237,1166,-0.175801,-0.469740,-0.156927,-0.129500,-0.004660,-0.021507
27.582229,1167,-0.187123,-0.333654,-0.178338,-0.126630,-0.022117,-0.029340
27.604567,1168,-0.057703,-0.545090,-0.418589,-0.092409,-0.044355,-0.008434
27.626581,1169,0.003109,-0.234172,-0.585351,-0.028980,-0.061922,-0.001695
27.648984,1170,-0.131037,0.369886,-0.140565,0.019999,-0.070857,-0.009598
27.671460,1171,-0.075279,0.314603,-0.193700,0.029829,-0.072821,-0.015469
27.693512,1172,-0.121926,0.081876,-0.252370,0.039584,-0.073644,-0.007652
27.716022,1173,-0.309100,0.322999,0.188886,0.033534,-0.078317,0.007967
27.737918,1174,-0.324078,0.410664,0.527669,-0.010020,-0.094785,0.043931
27.760433,1175,-0.084320,-0.028382,0.355566,-0.074469,-0.106916,0.080978
27.782275,1176,0.036437,-0.622152,-0.113967,-0.100389,-0.111067,0.087585
27.804744,1177,0.023406,-0.503194,-0.124912,-0.075743,-0.114542,0.069696
27.827723,1178,-0.005351,-0.064055,0.024365,-0.026897,-0.119870,0.048026
27.848806,1179,0.010598,0.190668,0.179972,0.018643,-0.117607,0.034549
27.871530,1180,0.001087,0.171748,0.013252,0.052599,-0.107853,0.025922
27.893528,1181,0.069285,-0.054996,-0.037756,0.058846,-0.104415,0.046984
27.915882,1182,0.210894,-0.121442,-0.154194,0.041103,-0.102772,0.087898
27.937665,1183,0.433398,-0.413412,-0.520090,0.027689,-0.097337,0.106107
27.960226,1184,0.422919,-0.305305,-0.617368,0.030752,-0.087096,0.100370
27.982218,1185,0.327811,0.174557,-0.338642,0.037254,-0.076034,0.089961
28.004508,1186,0.220834,0.526693,-0.013715,0.027569,-0.067512,0.062154
28.026640,1187,0.102505,0.693068,0.152153,-0.006020,-0.056207,0.026445
28.049202,1188,-0.005154,0.726392,0.153109,-0.054407,-0.040529,-0.018584
28.071576,1189,-0.042442,0.487577,0.034218,-0.105720,-0.029953,-0.053860
28.093398,1190,-0.113648,0.425697,0.112651,-0.144369,-0.023041,-0.068618
28.115730,1191,-0.163275,0.266154,0.268546,-0.195102,-0.017195,-0.046805
28.138740,1192,-0.092368,-0.274384,0.072121,-0.238077,-0.014654,-0.009206
28.161080,1193,0.014770,-0.561512,-0.119293,-0.245955,-0.012113,0.016737
28.238685,1194,-0.005917,-0.098751,-0.024105,-0.228825,-0.014899,0.012266
28.260449,1195,-0.229641,-0.086609,0.428594,-0.073090,-0.004694,0.004436
28.282636,1196,-0.061104,0.145245,0.256600,-0.046082,-0.014803,0.023673
28.305153,1197,0.145749,-0.123652,0.059917,-0.058708,-0.016935,0.052325
28.327246,1198,0.275721,-0.582575,-0.330763,-0.076307,-0.019477,0.063245
28.348758,1199,0.239089,-0.658062,-0.494592,-0.074553,-0.024149,0.054833
28.372319,1200,0.164446,-0.464039,-0.399554,-0.048187,-0.032094,0.039410
28.393939,1201,0.043091,0.020976,-0.149520,-0.016738,-0.043813,0.027126
28.415698,1202,0.053300,0.433130,0.113145,-0.011191,-0.049996,0.001670
28.437830,1203,0.019109,0.714202,0.295321,-0.029155,-0.050732,-0.022286
28.460519,1204,0.050434,0.604013,0.163085,-0.057203,-0.042095,-0.039231
28.482788,1205,-0.066971,0.506897,0.148859,-0.091749,-0.028734,-0.059559
28.505723,1206,-0.135186,0.152622,0.187948,-0.130375,-0.015355,-0.057550
28.526849,1207,-0.179712,-0.149137,0.165250,-0.168979,-0.012160,-0.034779
28.548821,1208,-0.025307,-0.387835,0.181986,-0.197423,-0.015976,-0.012629
28.571781,1209,0.179767,-0.683190,-0.214263,-0.200612,-0.014425,-0.004603
28.593496,1210,0.224947,-0.406877,-0.263395,-0.164282,-0.001996,-0.014051
28.615696,1211,0.245362,0.125039,0.065861,-0.119622,0.024224,-0.008900
28.637756,1212,0.154982,0.242161,0.142448,-0.088757,0.054461,0.014780
28.660711,1213,0.111874,0.264837,-0.024716,-0.050573,0.075354,0.019262
28.682202,1214,0.003110,0.658307,0.208467,-0.011702,0.086494,0.013861
28.704674,1215,-0.056526,0.284328,0.313379,-0.024351,0.089689,0.021427
28.727024,1216,-0.050914,-0.183998,0.181569,-0.067926,0.081687,0.039936
28.748532,1217,0.055634,-1.013768,-0.384953,-0.095322,0.061370,0.040724
28.771690,1218,-0.004022,-1.006823,-0.443176,-0.074803,0.033228,0.033035
28.793977,1219,-0.121277,-0.761210,-0.347380,-0.029557,-0.001794,0.016005
28.816215,1220,-0.209692,0.054927,0.133923,0.002053,-0.038701,-0.004926
28.837739,1221,-0.110251,0.296433,0.120005,0.008422,-0.069839,-0.020273
28.860707,1222,0.018991,0.526546,0.134150,0.007335,-0.084997,-0.042609
28.882332,1223,0.091386,0.465618,-0.006674,0.001876,-0.081802,-0.061951
28.904406,1224,0.023727,0.368792,-0.047074,-0.001175,-0.066889,-0.076975
28.926761,1225,0.032670,0.557325,0.143916,-0.031279,-0.047194,-0.074856
28.948886,1226,0.052277,0.492932,0.146027,-0.093730,-0.017501,-0.052208
28.971754,1227,0.035239,0.050749,-0.015953,-0.163948,0.017275,-0.013940
28.993947,1228,-0.017566,-0.386248,-0.144185,-0.197470,0.034319,0.009977
29.015583,1229,0.083981,-0.361365,-0.072743,-0.203173,0.041775,0.003141
29.037790,1230,0.160929,0.109021,0.081556,-0.188964,0.051194,-0.000431
29.060562,1231,0.212191,0.226387,0.098328,-0.162658,0.066929,-0.002527
29.082223,1232,0.004017,0.376030,0.191541,-0.123183,0.080366,-0.011372
29.104721,1233,0.024686,0.447115,0.290878,-0.098653,0.090120,-0.021991
29.126916,1234,-0.015740,0.128118,0.167200,-0.119599,0.092083,-0.032022
29.148773,1235,0.038438,-0.625153,-0.084957,-0.158911,0.086512,-0.028746
29.171796,1236,0.142066,-1.258540,-0.517482,-0.143337,0.075692,-0.019921
29.253318,1237,0.029672,-0.276206,-0.143445,-0.084359,0.059845,-0.030834
29.271465,1238,0.248008,0.794871,0.222452,-0.018265,0.052386,-0.086614
29.293456,1239,-0.001265,0.502707,0.061679,-0.014137,0.061074,-0.099640
29.316041,1240,-0.074960,0.494917,0.125444,-0.031152,0.071727,-0.119447
29.337799,1241,-0.125605,0.610673,0.189125,-0.072042,0.086396,-0.126863
29.360071,1242,-0.134082,0.081609,0.034443,-0.136017,0.094860,-0.120621
29.382330,1243,-0.195895,-0.165301,0.006798,-0.184016,0.095548,-0.100752
29.404810,1244,-0.058241,-0.261782,0.012952,-0.205524,0.090875,-0.068168
29.427032,1245,-0.079788,-0.417147,-0.063300,-0.200637,0.085138,-0.049570
29.448944,1246,-0.107424,-0.287332,-0.012891,-0.174249,0.077980,-0.046640
29.471520,1247,-0.052600,0.051601,0.123280,-0.130295,0.070356,-0.045940
29.493670,1248,-0.096653,0.345815,0.161461,-0.082114,0.068525,-0.042865
29.517284,1249,-0.183549,0.206013,0.128590,-0.035652,0.060656,-0.028107
29.537699,1250,-0.256195,-0.259811,0.011966,-0.017879,0.043201,-0.002639
29.559940,1251,-0.196539,-0.516793,-0.051043,-0.020894,0.016945,0.026722
29.582123,1252,-0.175579,-0.717430,-0.343791,-0.025786,-0.016977,0.043557
29.604543,1253,-0.290006,-0.582651,-0.408518,-0.008741,-0.055772,0.045289
29.626819,1254,-0.157663,-0.221290,-0.290766,0.011366,-0.102477,0.042870
29.648927,1255,0.065780,0.228505,-0.127926,0.042259,-0.130863,0.041272
29.671945,1256,-0.145577,0.999272,0.334687,0.025309,-0.133649,0.018046
29.693484,1257,-0.286377,0.930290,0.149200,-0.032220,-0.136979,-0.002969
29.715766,1258,-0.123850,0.402110,-0.182183,-0.073598,-0.140830,-0.001337
29.737875,1259,-0.161211,0.225092,-0.159085,-0.089802,-0.143859,0.006176
29.760117,1260,-0.175997,0.307301,0.068622,-0.123542,-0.144681,0.028370
29.782233,1261,-0.134409,0.063353,0.238350,-0.176764,-0.146291,0.054880
29.804591,1262,-0.038281,-0.509613,-0.013928,-0.215941,-0.146536,0.082155
29.826864,1263,0.002695,-0.692018,-0.041399,-0.206874,-0.146293,0.094528
29.848954,1264,0.038457,-0.310895,0.001718,-0.168709,-0.142931,0.089457
29.871604,1265,0.139748,-0.063195,0.054400,-0.122950,-0.133511,0.082667
29.893821,1266,0.175756,0.186520,0.052652,-0.064383,-0.121006,0.071482
29.915685,1267,0.139818,0.526050,0.311272,-0.015813,-0.106992,0.059365
29.937873,1268,0.186435,0.075696,0.152789,-0.011662,-0.086752,0.063684
29.960192,1269,0.274522,-0.519431,-0.161653,-0.026852,-0.062663,0.076323
29.982377,1270,0.256324,-1.084806,-0.488486,-0.011579,-0.047228,0.072550
30.004695,1271,0.196338,-0.662176,-0.462330,0.022457,-0.037098,0.057161
30.026916,1272,0.160031,-0.005962,-0.171996,0.039318,-0.035379,0.043911
30.049034,1273,0.135644,0.108313,-0.044322,0.049461,-0.030707,0.022884
30.071480,1274,0.158312,0.204089,0.005711,0.057256,-0.024072,-0.000551
30.093538,1275,0.029365,0.396728,0.075566,0.068216,-0.008094,-0.025185
30.116047,1276,-0.127663,0.906161,0.262335,0.050252,0.008052,-0.050073
30.137883,1277,-0.099623,0.790327,0.241318,-0.003832,0.021356,-0.060958
30.160177,1278,-0.226675,0.008736,0.045063,-0.060811,0.028025,-0.058654
30.182496,1279,-0.313995,-0.563743,-0.111815,-0.080373,0.021876,-0.045000
30.262356,1280,-0.071143,-0.165292,0.051044,-0.072105,-0.001971,-0.004294
30.282373,1281,0.260576,-1.705161,0.486642,0.080168,-0.015387,0.044304
30.304995,1282,0.145460,0.513847,0.240270,0.129089,0.003132,0.045305
30.327006,1283,-0.018977,0.397689,0.217707,0.166130,0.015915,0.052983
30.348960,1284,0.015583,-0.144454,0.033179,0.185768,0.016048,0.062361
30.372091,1285,0.011897,-0.546444,-0.004380,0.190899,0.006947,0.081480
30.394216,1286,0.061252,-1.130015,-0.289088,0.213925,-0.010341,0.086297
30.415914,1287,0.210924,-1.473150,-0.441009,0.278530,-0.033644,0.080531
30.437980,1288,0.233285,-1.748875,-0.332643,0.393214,-0.054684,0.059371
30.460647,1289,0.582948,-1.282192,0.151716,0.545571,-0.058568,0.025891
30.482817,1290,1.353144,-1.518121,-0.250934,0.698969,0.004095,-0.033972
30.504902,1291,2.106936,-1.821975,-1.189401,0.929704,0.144188,-0.098537
30.528182,1292,1.123479,2.365163,0.348156,1.089166,0.350229,-0.108390
30.549062,1293,0.165456,3.562998,1.530150,0.958836,0.509451,-0.124428
30.571414,1294,0.162582,-0.013089,-0.003568,0.755672,0.606258,-0.151760
30.593852,1295,0.008506,-0.059098,-0.073322,0.662474,0.649475,-0.154580
30.615792,1296,-0.328252,1.190300,0.930654,0.531581,0.652781,-0.168944
30.638181,1297,-0.117816,0.711541,0.419112,0.364303,0.632108,-0.181444
30.660743,1298,-0.055897,0.681227,-0.063212,0.232267,0.606819,-0.194724
30.682489,1299,-0.099732,0.166403,-0.312652,0.159975,0.581663,-0.225571
30.704773,1300,-0.269545,0.203869,-0.326891,0.152664,0.543314,-0.252302
30.727101,1301,-0.468167,0.938133,0.180330,0.153597,0.494035,-0.264043
30.748947,1302,-0.564556,1.172097,0.381326,0.107902,0.433315,-0.275517
30.771991,1303,-0.595014,0.632733,0.262013,0.000953,0.366203,-0.264276
30.793666,1304,-0.549171,-0.135072,-0.208556,-0.091796,0.302121,-0.231542
30.815768,1305,-0.575432,-0.608980,-0.523777,-0.132693,0.218543,-0.198519
30.838695,1306,-0.513297,-0.004113,-0.256173,-0.151421,0.136484,-0.154947
30.860330,1307,-0.641600,0.799207,0.098032,-0.194428,0.050088,-0.119023
30.882907,1308,-0.451227,0.672591,0.050023,-0.263345,-0.023583,-0.123730
30.904746,1309,-0.457476,0.254155,-0.112674,-0.312858,-0.088640,-0.155631
30.927081,1310,-0.361048,0.454022,-0.064931,-0.338558,-0.138985,-0.171256
30.948904,1311,-0.385128,0.421027,-0.023057,-0.365457,-0.170121,-0.194113
30.972091,1312,-0.397217,0.271726,0.150850,-0.396484,-0.195276,-0.208483
30.993727,1313,-0.483604,-0.189354,0.128762,-0.421953,-0.215927,-0.191549
31.015756,1314,-0.409263,0.082392,0.212124,-0.452535,-0.237400,-0.134413
31.037952,1315,-0.522190,-0.313083,0.019846,-0.469036,-0.265097,-0.041359
31.060268,1316,-0.660960,-0.394057,-0.010696,-0.464555,-0.312868,0.022123
31.082563,1317,-0.838408,-0.505294,-0.080187,-0.419359,-0.385785,0.076064
31.104731,1318,-0.944295,-0.243932,-0.097173,-0.345845,-0.473248,0.143864
31.127097,1319,-0.731814,0.051417,0.093258,-0.260092,-0.560988,0.204394
31.148841,1320,-0.325878,0.116479,0.142757,-0.198753,-0.639141,0.224635
31.172011,1321,-0.008286,-0.002593,0.073456,-0.179313,-0.689209,0.249669
31.193650,1322,0.394143,-0.231667,-0.149141,-0.194216,-0.697321,0.294300
31.272751,1323,0.175353,-0.235479,-0.187901,-0.189789,-0.674540,0.301313
31.293656,1324,3.081309,-1.110660,-1.312323,-0.030822,-0.480873,0.152224
31.316395,1325,0.815954,0.371861,0.037812,-0.035228,-0.374892,0.090116
31.338116,1326,0.725699,0.405339,0.029987,-0.040566,-0.269809,0.035308
31.360397,1327,0.520229,0.464126,0.150781,-0.055468,-0.164069,0.000709
31.382686,1328,0.492190,0.208263,0.107270,-0.071036,-0.059864,-0.007175
31.404864,1329,0.172784,0.115526,0.105847,-0.101585,0.025224,0.004277
31.427014,1330,-0.047636,-0.312855,0.121117,-0.132831,0.073438,0.018791
31.449353,1331,-0.033976,-0.545304,-0.043092,-0.139499,0.098426,0.020944
31.471879,1332,-0.055095,-0.415885,0.141645,-0.120844,0.109490,0.036212
31.493830,1333,0.072394,-0.351425,0.045957,-0.082083,0.113751,0.039830
31.515972,1334,-0.127227,-0.168033,0.047529,-0.022149,0.117844,0.039952
31.538018,1335,-0.162368,0.113796,0.227280,0.048026,0.107736,0.040219
31.560015,1336,-0.092496,0.586627,0.423325,0.066525,0.097459,0.025282
31.582445,1337,-0.000922,-0.210236,0.076651,0.053709,0.079928,0.032060
31.604609,1338,0.005353,-0.706683,-0.301726,0.047670,0.063128,0.049052
31.626936,1339,0.151999,-0.772918,-0.487420,0.064531,0.039281,0.041406
31.649259,1340,0.068608,-0.310787,-0.447015,0.086225,0.018930,0.016018
31.671661,1341,0.108702,0.144434,-0.132838,0.086237,-0.000489,-0.011157
31.693685,1342,0.089022,0.474000,0.025761,0.072778,-0.013926,-0.039265
31.715850,1343,0.089781,0.717756,0.095910,0.046125,-0.013029,-0.057600
31.737921,1344,0.059283,0.781984,0.047318,0.007122,-0.001520,-0.066052
31.760319,1345,-0.117362,0.693846,0.021200,-0.030460,0.015357,-0.083377
31.782296,1346,-0.138760,0.509066,0.180693,-0.073130,0.026698,-0.077979
31.804742,1347,-0.221655,-0.014410,0.037101,-0.115310,0.038659,-0.051150
31.826932,1348,-0.189100,-0.170732,0.065497,-0.148125,0.040732,-0.016495
31.849105,1349,-0.098270,-0.536576,0.107951,-0.158000,0.041721,0.021795
31.871623,1350,-0.056928,-0.558565,0.082487,-0.144423,0.041554,0.041187
31.893797,1351,-0.057516,-0.505519,-0.028309,-0.104546,0.036772,0.052429
31.916205,1352,0.004738,0.008633,0.136725,-0.055676,0.029482,0.051653
31.937908,1353,0.099274,0.339802,0.213303,-0.013609,0.033054,0.045267
31.960004,1354,0.099215,0.398554,0.259688,0.022285,0.039689,0.045578
31.983115,1355,0.014388,-0.081269,0.029703,0.030884,0.041576,0.047216
32.004987,1356,0.040509,-0.242542,-0.061986,0.022167,0.036493,0.058194
32.026949,1357,0.003663,-0.764082,-0.504675,0.017830,0.025764,0.059837
32.049166,1358,-0.041386,-0.405209,-0.222906,0.027117,-0.002100,0.051536
32.071719,1359,0.197155,-0.194178,-0.193731,0.026656,-0.022375,0.047796
32.093932,1360,0.085075,-0.076944,-0.137953,0.041089,-0.034991,0.014917
32.115991,1361,0.004668,0.483191,0.151147,0.039381,-0.042859,-0.016519
32.138099,1362,0.061434,0.621685,0.054651,0.022315,-0.045887,-0.039411
32.161222,1363,0.089515,0.381380,0.031184,0.008745,-0.034170,-0.057388
32.183122,1364,-0.027152,0.432268,0.029980,-0.002896,-0.020211,-0.060150
32.204930,1365,-0.125695,0.536594,0.179916,-0.043486,-0.009392,-0.055195
32.272379,1366,0.004357,0.026469,0.036568,-0.066655,-0.002346,-0.043211
32.294255,1367,-0.069136,-1.623651,0.129735,-0.081991,0.028656,0.018158
32.316858,1368,0.074233,-0.074665,0.210787,-0.039432,0.036934,0.020376
32.338145,1369,0.143103,0.209424,0.196540,-0.001903,0.052259,0.022651
32.360206,1370,0.136875,0.314272,0.121920,0.038201,0.067960,0.018367
32.382352,1371,-0.080077,0.094774,0.094093,0.050029,0.078202,0.008403
32.404994,1372,-0.052606,-0.113953,0.018456,0.042162,0.071399,0.011321
32.427027,1373,0.170132,-0.622864,-0.273525,0.035383,0.063121,0.029187
32.449155,1374,0.098880,-0.868115,-0.503663,0.054835,0.052224,0.027034
32.471623,1375,0.138962,-0.431019,-0.336832,0.085595,0.041404,0.020243
32.493845,1376,0.034857,0.255222,-0.049502,0.097945,0.023595,0.004409
32.517011,1377,0.025830,0.535488,0.028864,0.078915,0.017204,-0.028237
32.537923,1378,0.000976,0.768651,0.177354,0.039673,0.016903,-0.067872
32.560271,1379,-0.016106,0.508169,-0.096682,0.006929,0.019201,-0.084928
32.582471,1380,-0.129408,0.357779,-0.168461,-0.011475,0.027480,-0.093804
32.604800,1381,-0.124382,0.596660,0.185039,-0.043600,0.036112,-0.094394
32.627261,1382,-0.206441,0.299659,0.249343,-0.093412,0.047997,-0.056931
32.649366,1383,-0.149540,-0.394179,0.112533,-0.136909,0.060480,-0.007152
32.671650,1384,-0.167049,-0.693439,-0.030106,-0.141558,0.062610,0.016904
32.693932,1385,0.011422,-0.523670,-0.014337,-0.115581,0.061955,0.017215
32.715847,1386,-0.016167,-0.145882,0.212785,-0.073681,0.065939,0.014929
32.737984,1387,-0.063560,-0.022816,0.250338,-0.028883,0.067826,0.029611
32.760107,1388,-0.045153,0.143678,0.130635,0.022904,0.063287,0.037022
32.782349,1389,0.067932,0.045203,0.072820,0.065574,0.062876,0.031951
32.804878,1390,0.013356,0.121884,0.214044,0.070374,0.059513,0.034359
32.827046,1391,0.136499,-0.427543,-0.099608,0.048899,0.059514,0.059704
32.849094,1392,0.164043,-1.147413,-0.646619,0.064694,0.052224,0.050420
32.871545,1393,0.100100,-0.722964,-0.534527,0.119167,0.027202,0.038609
32.893825,1394,0.079384,0.364671,-0.042790,0.138319,0.008681,0.017315
32.916046,1395,0.119741,0.774025,0.267813,0.106749,-0.002626,-0.011180
32.938132,1396,0.081244,0.511095,0.081296,0.060133,-0.002215,-0.048476
32.960411,1397,0.120956,0.364272,-0.141790,0.039661,0.005486,-0.087021
32.982658,1398,0.083562,0.420538,-0.095920,0.033525,0.023630,-0.119774
33.004941,1399,-0.066270,0.679129,0.153349,0.008531,0.044524,-0.126305
33.027164,1400,0.008227,0.095963,0.085500,-0.030158,0.070368,-0.100240
33.049145,1401,-0.099087,-0.463270,0.074949,-0.052205,0.090775,-0.066407
33.071786,1402,-0.130133,-0.509221,0.060293,-0.051429,0.102847,-0.025961
33.093939,1403,-0.122508,-0.147797,0.254037,-0.047145,0.106697,0.001082
33.116332,1404,-0.161083,-0.129040,0.158696,-0.044504,0.103912,0.017060
33.138131,1405,-0.124260,-0.072322,0.005826,-0.020768,0.092160,0.035969
33.161058,1406,-0.148834,0.337194,0.158505,0.018503,0.072986,0.057807
33.182431,1407,-0.120694,0.390037,0.274142,0.045656,0.058205,0.052492
33.204741,1408,-0.121536,-0.014216,0.043831,0.049096,0.043292,0.055311
33.282424,1409,-0.017547,-0.081591,-0.009615,0.032596,0.031330,0.066752
33.305382,1410,0.284728,-1.532383,-1.180558,0.093050,-0.036713,0.054867
33.327346,1411,0.069580,0.529172,0.042942,0.083307,-0.036303,0.021241
33.349104,1412,0.177197,0.685791,0.089751,0.052884,-0.028602,-0.001603
33.372326,1413,0.207767,0.494087,-0.093966,0.022355,-0.011147,-0.022098
33.393965,1414,0.196227,0.515225,-0.145763,-0.000200,0.015107,-0.043908
33.415887,1415,-0.166819,0.558671,-0.015970,-0.026802,0.040130,-0.059320
33.438009,1416,-0.279137,0.580697,0.267491,-0.085570,0.049549,-0.042264
33.460432,1417,-0.133118,-0.191298,0.072991,-0.149440,0.056385,-0.011112
33.482533,1418,-0.107912,-0.584342,0.012532,-0.165263,0.056629,0.016441
33.504816,1419,-0.010199,-0.598193,0.078468,-0.150510,0.055808,0.029359
33.526793,1420,-0.149120,-0.355408,0.159183,-0.115716,0.050648,0.036802
33.549407,1421,-0.002670,-0.035868,0.158319,-0.062041,0.042746,0.050797
33.571772,1422,0.043520,0.298987,0.228929,-0.019975,0.036355,0.039831
33.594193,1423,-0.004801,0.120591,0.081328,0.014479,0.034114,0.010015
33.615775,1424,-0.033768,0.069439,0.117628,0.018629,0.031329,0.016407
33.637914,1425,-0.005433,-0.495613,-0.134079,0.001492,0.020022,0.041452
33.660491,1426,0.135387,-0.994045,-0.533653,0.012586,0.008791,0.046588
33.682641,1427,0.132351,-0.650499,-0.471478,0.052851,-0.006644,0.032786
33.704745,1428,0.107556,-0.170024,-0.280201,0.082411,-0.017540,0.022144
33.726828,1429,0.013700,0.542742,0.083099,0.091866,-0.027538,0.010127
33.748814,1430,0.087911,0.810846,0.149466,0.066821,-0.029014,-0.007062
33.771973,1431,0.217856,0.742141,-0.030192,0.025496,-0.016718,-0.033949
33.794374,1432,0.097801,0.560718,-0.165095,-0.016558,0.009613,-0.060458
33.815861,1433,-0.122753,0.575377,-0.011441,-0.051057,0.031439,-0.065084
33.838848,1434,-0.234294,0.314243,0.190086,-0.107360,0.040783,-0.046309
33.860356,1435,-0.188480,-0.058399,0.149753,-0.157194,0.040893,-0.022752
33.882699,1436,-0.120510,-0.419392,0.101263,-0.186126,0.041548,-0.003387
33.904808,1437,-0.087772,-0.483129,0.156590,-0.182715,0.035978,0.015621
33.927325,1438,0.024077,-0.269695,0.135327,-0.156738,0.025082,0.018417
33.948997,1439,0.058938,-0.249293,0.088199,-0.112541,0.023982,0.018505
33.972260,1440,0.028413,0.070108,0.226164,-0.049490,0.019965,0.013989
33.993941,1441,0.069836,0.160617,0.244490,-0.005921,0.022396,0.009572
34.015934,1442,0.123883,-0.105249,0.109597,0.001094,0.023629,0.010480
34.038225,1443,0.162590,-0.554816,-0.183310,-0.006524,0.022396,0.011627
34.060755,1444,0.194794,-0.701436,-0.345029,0.003584,0.019200,0.006579
34.082400,1445,0.198526,-0.574161,-0.433827,0.028884,0.016004,-0.009179
34.105128,1446,0.168822,-0.152047,-0.307914,0.058937,0.012120,-0.021707
34.127177,1447,0.051965,0.347243,-0.025968,0.070140,0.012287,-0.049537
34.149016,1448,0.041774,0.738910,0.145026,0.051880,0.014417,-0.076690
34.172055,1449,-0.035031,0.533832,0.007135,0.022735,0.026656,-0.099315
34.193979,1450,-0.072200,0.498997,-0.102030,-0.006948,0.037476,-0.123550
34.215903,1451,-0.134415,0.598351,0.073252,-0.042101,0.047417,-0.126346
34.283603,1452,-0.017154,0.079718,0.027459,-0.066226,0.053809,-0.120946
34.304485,1453,-0.677478,-1.010912,0.445390,-0.159158,0.060067,-0.020729
34.325999,1454,-0.081901,-0.332513,0.123993,-0.126489,0.053676,-0.004906
34.348169,1455,-0.061884,0.001554,0.223998,-0.084700,0.044876,0.003872
34.371173,1456,-0.058228,0.251108,0.264666,-0.045696,0.037997,0.010275
34.392638,1457,-0.061661,0.028070,0.146065,-0.009066,0.034934,0.011595
34.414878,1458,0.046875,-0.176607,0.047674,0.011551,0.026488,0.028540
34.437160,1459,0.095352,-0.440004,-0.052657,0.014492,0.021740,0.060985
34.459487,1460,0.011542,-0.910988,-0.427721,0.034488,0.002565,0.064609
34.481746,1461,0.025859,-0.769070,-0.479922,0.076011,-0.019672,0.046616
34.503949,1462,0.170691,0.009680,-0.145333,0.107592,-0.039292,0.040891
34.525937,1463,0.051828,0.323691,-0.121831,0.118715,-0.051010,0.029394
34.548154,1464,0.113529,0.724437,0.043918,0.101977,-0.053384,-0.000132
34.571409,1465,0.048194,0.659421,-0.010647,0.064016,-0.044995,-0.024645
34.593129,1466,-0.003600,0.635982,-0.167205,0.031925,-0.027951,-0.038749
34.615149,1467,-0.208851,0.796778,0.074979,-0.010274,-0.011527,-0.051730
34.637477,1468,-0.226525,0.428180,0.136374,-0.072482,-0.000521,-0.028617
34.659705,1469,-0.158939,-0.146916,0.053575,-0.127997,-0.003306,0.002043
34.681886,1470,-0.187945,-0.502713,0.126611,-0.147837,-0.007567,0.030528
34.704159,1471,-0.063824,-0.469890,0.185558,-0.149063,-0.018798,0.039126
34.726394,1472,0.069900,-0.605119,0.003456,-0.119856,-0.025433,0.032995
34.748313,1473,0.207301,-0.253586,0.099108,-0.057631,-0.017920,0.024026
34.771377,1474,0.105976,0.430072,0.335898,0.001070,-0.006369,0.022915
34.793138,1475,0.156651,0.324493,0.303870,0.019590,0.011329,0.027535
34.815177,1476,0.111111,-0.390575,-0.072151,0.032668,0.024523,0.038274
34.838186,1477,-0.015691,-0.619983,-0.177957,0.037203,0.026243,0.039248
34.860736,1478,0.062954,-0.711597,-0.323024,0.056464,0.013216,0.033579
34.882094,1479,0.195247,-0.668530,-0.428686,0.090663,0.000566,0.035721
34.903992,1480,0.027037,-0.065241,-0.156947,0.119292,-0.017300,0.023193
34.926193,1481,0.066364,0.562544,0.112149,0.110255,-0.031015,-0.003764
34.948277,1482,0.178610,0.587275,-0.006585,0.078668,-0.031803,-0.046494
34.971516,1483,0.144077,0.668897,-0.055700,0.045246,-0.014104,-0.082800
34.992837,1484,0.038861,0.805845,-0.067972,0.021921,0.010842,-0.097315
35.015128,1485,-0.187509,0.793926,0.180814,-0.028911,0.035997,-0.096481
35.037520,1486,-0.256617,0.328381,0.275401,-0.094202,0.050778,-0.085441
35.059871,1487,-0.396358,-0.390381,0.113470,-0.140508,0.049412,-0.061630
35.082322,1488,-0.282567,-0.834280,0.026180,-0.139646,0.036218,-0.024975
35.104807,1489,-0.265089,-0.778065,0.162686,-0.099605,0.016355,0.002103
35.126679,1490,-0.175818,-0.347596,0.284026,-0.060578,-0.008256,0.022876
35.149099,1491,0.028882,-0.061427,0.181101,-0.018379,-0.019563,0.030019
35.171471,1492,0.142881,-0.034918,-0.041223,0.028411,-0.014104,0.033394
35.194191,1493,0.066396,0.319776,0.172093,0.078427,-0.000499,0.037819
35.215301,1494,0.109461,0.118638,0.080780,0.098256,0.012284,0.045309
35.294251,1495,0.014336,-0.046126,-0.001425,0.098522,0.022526,0.062487
35.315609,1496,0.343883,-1.692549,-1.071291,0.126665,-0.018475,0.031827
35.337794,1497,0.058612,0.394449,-0.055799,0.113701,-0.033389,0.003643
35.360800,1498,0.192056,0.557775,-0.020743,0.089322,-0.038959,-0.041619
35.382102,1499,0.265525,0.629294,-0.209401,0.060160,-0.022626,-0.083753
35.404276,1500,0.085470,0.700749,-0.292971,0.036868,0.005238,-0.103097
35.426536,1501,-0.151007,0.842225,0.007791,0.001680,0.025832,-0.102783
35.448910,1502,-0.281919,0.613780,0.179342,-0.065854,0.037173,-0.083220
35.471272,1503,-0.134157,-0.052151,0.044912,-0.133574,0.041301,-0.048166
35.493393,1504,-0.126446,-0.585457,-0.066279,-0.158197,0.041301,-0.009793
35.516730,1505,-0.083587,-0.606900,0.061755,-0.141952,0.033844,0.011379
35.537738,1506,0.020276,-0.354880,0.084175,-0.112617,0.025866,0.011391
35.560076,1507,0.134846,-0.143426,0.184829,-0.073497,0.027175,0.017459
35.582084,1508,0.219633,0.013208,0.084122,-0.019823,0.036929,0.023618
35.604511,1509,0.068616,0.373129,0.330509,0.023360,0.053042,0.024452
35.626727,1510,0.116380,-0.129028,0.159181,0.031664,0.062385,0.022641
35.648889,1511,0.009186,-0.585792,-0.152731,0.034975,0.064425,0.016736
35.671210,1512,0.043480,-0.951586,-0.381220,0.058330,0.051809,0.012903
35.693898,1513,0.104966,-0.702510,-0.419595,0.101051,0.030150,0.010402
35.715734,1514,0.125519,-0.220842,-0.217213,0.137004,0.010153,-0.002335
35.737946,1515,0.149706,0.359778,-0.081966,0.143540,-0.002009,-0.022632
35.760050,1516,0.144578,0.687975,0.072160,0.116475,-0.008778,-0.052519
35.782173,1517,0.222585,0.598970,-0.093719,0.085872,0.000322,-0.094370
35.804738,1518,0.146014,0.482576,-0.109376,0.064300,0.022769,-0.125575
35.826636,1519,0.041533,0.473330,0.027744,0.050974,0.053041,-0.140055
35.849164,1520,-0.139178,-0.013366,0.225036,0.038324,0.084756,-0.128592
35.871678,1521,-0.150838,-0.709174,0.230101,0.044136,0.107891,-0.100351
35.893761,1522,-0.234348,-1.338026,0.177369,0.097470,0.117855,-0.056420
35.915767,1523,-0.122481,-1.352168,0.187630,0.190304,0.120773,-0.006087
35.937830,1524,-0.094838,-1.594288,0.152514,0.321632,0.119597,0.030688
35.959788,1525,-0.056291,-1.697807,0.103485,0.488634,0.114866,0.057389
35.982047,1526,0.121342,-1.862065,0.136005,0.701965,0.115381,0.077680
36.004368,1527,0.043766,-2.021531,0.229498,0.955702,0.120639,0.087680
36.027047,1528,0.105917,-2.713453,-0.009126,1.238396,0.122926,0.082184
36.048785,1529,0.283972,-2.797987,-0.589275,1.505464,0.123436,0.089601
36.071154,1530,0.336707,-2.666922,-1.450526,1.793032,0.115724,0.134197
36.093526,1531,-0.149057,0.552731,-0.635499,2.009156,0.105748,0.205904
36.115816,1532,-0.354027,2.661229,1.434178,1.951728,0.101077,0.268400
36.137661,1533,0.071090,2.375099,0.281603,1.696807,0.112319,0.285809
36.160756,1534,-0.424257,4.554177,0.682982,1.391096,0.117079,0.332847
36.182168,1535,-0.941724,6.528318,2.825854,0.905171,0.109444,0.311658
36.204346,1536,-0.294756,3.132428,0.658942,0.289632,0.078297,0.173655
36.226628,1537,0.240590,1.894537,-1.738929,-0.105447,0.042450,0.063381
36.292527,1538,-0.019609,0.394799,-0.126658,-0.190685,0.020074,0.031100
36.315793,1539,0.270390,2.789955,0.412368,-0.777291,-0.040972,-0.134226
36.337916,1540,0.114756,0.408530,0.203263,-0.861303,-0.028564,-0.171558
36.360779,1541,0.250197,-0.260675,-0.397022,-0.914289,-0.009688,-0.188398
36.382125,1542,0.191844,-0.083556,-0.408590,-0.900611,0.009245,-0.164551
36.404654,1543,0.041195,0.230791,0.094780,-0.869504,0.025225,-0.139940
36.426484,1544,0.061507,-0.283757,0.011316,-0.846758,0.040384,-0.132616
36.449037,1545,0.052303,-1.047246,-0.203898,-0.800242,0.051993,-0.114657
36.471292,1546,0.000212,-1.208641,-0.222645,-0.732344,0.055022,-0.091835
36.493640,1547,0.043951,-1.364310,-0.374293,-0.645405,0.052783,-0.075479
36.516548,1548,0.008673,-1.345403,-0.603943,-0.532154,0.046769,-0.054057
36.537826,1549,-0.111726,-0.504898,-0.272771,-0.419273,0.033432,-0.026366
36.560124,1550,-0.202101,0.317199,0.155321,-0.367869,0.016556,-0.030958
36.582287,1551,-0.033888,-0.282614,-0.285516,-0.340868,0.004728,-0.059876
36.604795,1552,-0.143520,0.219102,-0.178987,-0.297737,0.001198,-0.068965
36.626892,1553,-0.122775,0.482639,0.057707,-0.282060,-0.002728,-0.070246
36.648802,1554,-0.137345,-0.041225,-0.124226,-0.276080,-0.005136,-0.070297
36.671489,1555,-0.178750,-0.354159,-0.194726,-0.256363,-0.011116,-0.059911
36.693832,1556,-0.255868,-0.080343,0.216684,-0.252247,-0.017264,-0.038606
36.716551,1557,-0.171156,0.006059,0.271638,-0.275661,-0.023412,-0.018755
36.737797,1558,-0.124217,-0.472094,-0.061968,-0.278013,-0.027262,0.000420
36.760225,1559,-0.167119,-0.535056,-0.006569,-0.241551,-0.042420,0.009884
36.782045,1560,-0.133395,-0.333526,-0.046828,-0.179547,-0.056135,0.021104
36.804398,1561,-0.223435,0.241913,0.195140,-0.119833,-0.062804,0.016497
36.826739,1562,-0.130787,0.185023,0.387468,-0.094290,-0.077231,-0.001109
36.849098,1563,-0.158806,-0.133279,0.134799,-0.097897,-0.096649,-0.000369
36.871334,1564,-0.067841,-0.451277,-0.166102,-0.103756,-0.117955,0.044783
36.893667,1565,0.034236,-0.711053,-0.391499,-0.089231,-0.136585,0.067374
36.915842,1566,0.139228,-0.689148,-0.423742,-0.051403,-0.161497,0.080857
36.938062,1567,0.080866,-0.374285,-0.234453,-0.008381,-0.181194,0.091388
36.960253,1568,0.081924,0.014089,-0.029435,0.027520,-0.197040,0.070773
36.982715,1569,0.097635,0.406204,0.144651,0.039655,-0.209823,0.034617
37.004626,1570,0.120227,0.353578,0.099638,0.035841,-0.208758,-0.002667
37.026923,1571,0.148131,0.414841,-0.082040,0.019658,-0.195153,-0.050094
37.049134,1572,0.074655,0.633858,0.172275,-0.007402,-0.173981,-0.073918
37.071858,1573,0.045647,0.203355,0.126416,-0.041849,-0.151611,-0.071088
37.093980,1574,-0.041938,-0.149308,0.076176,-0.073952,-0.123393,-0.058670
37.116387,1575,-0.054012,-0.266838,0.185737,-0.094579,-0.107658,-0.039751
37.138229,1576,0.030100,-0.484072,0.096678,-0.088553,-0.087307,0.000285
37.160303,1577,-0.040806,-0.474118,0.191043,-0.055431,-0.075590,0.026650
37.182422,1578,0.008396,-0.145046,0.164470,-0.007570,-0.069887,0.037146
37.204760,1579,-0.037642,-0.188834,0.113407,0.053017,-0.066767,0.035339
37.227064,1580,-0.025954,-0.287595,0.117890,0.116233,-0.064671,0.007053
37.299571,1581,-0.009483,-0.043751,-0.014438,0.146664,-0.069830,0.004001
37.316450,1582,-0.123812,-2.243951,-0.865043,0.184527,-0.133293,0.095192
37.337874,1583,0.131594,-1.160984,-0.857737,0.270211,-0.153836,0.116965
37.360387,1584,-0.078754,-0.378963,-0.438082,0.376438,-0.168778,0.124121
37.382422,1585,-0.048359,-0.060750,-0.253508,0.452083,-0.189463,0.107043
37.404841,1586,-0.145939,0.487308,-0.059453,0.499610,-0.202734,0.112415
37.426872,1587,-0.199091,1.704256,0.516623,0.467064,-0.212077,0.136412
37.449109,1588,-0.133269,1.707735,0.511539,0.352381,-0.208437,0.158673
37.471872,1589,0.119394,0.306821,-0.133008,0.214771,-0.210213,0.144193
37.493964,1590,0.096087,0.136223,-0.026325,0.131232,-0.192648,0.094671
37.515872,1591,0.163595,0.319427,0.324497,0.047077,-0.182615,0.080857
37.537863,1592,0.247678,-0.497953,0.038928,0.008786,-0.166693,0.086497
37.560277,1593,0.184769,-0.890758,-0.110200,0.033288,-0.150547,0.082433
37.582177,1594,0.338907,-0.670873,-0.041473,0.109345,-0.132715,0.071114
37.604947,1595,0.132898,-0.043564,0.255617,0.184025,-0.108700,0.065012
37.626956,1596,0.112534,-0.280480,0.290705,0.242709,-0.083712,0.051611
37.649237,1597,0.235369,-0.630931,-0.094218,0.280300,-0.061451,0.036649
37.671267,1598,0.298775,-0.937636,-0.634809,0.337037,-0.040967,0.034641
37.693609,1599,0.181901,0.024732,0.025246,0.375272,-0.028427,0.041588
37.715812,1600,0.361034,-0.359540,-0.272430,0.379072,-0.008186,0.036227
37.737948,1601,0.306391,0.464709,-0.263262,0.378974,0.018446,0.016942
37.760349,1602,0.074863,1.674182,0.492238,0.307905,0.041338,-0.011843
37.782450,1603,0.288654,1.493430,0.277615,0.186987,0.060901,-0.042636
37.804935,1604,0.265766,1.145888,-0.205688,0.074919,0.088633,-0.083882
37.827130,1605,0.299484,0.944479,-0.167760,-0.010944,0.112591,-0.129000
37.849320,1606,0.201282,1.362307,0.303378,-0.111923,0.150674,-0.167871
37.871955,1607,0.130864,1.139889,0.409004,-0.237902,0.185041,-0.178946
37.893913,1608,0.549906,0.023525,-0.141537,-0.339466,0.248280,-0.152326
37.916205,1609,0.074826,-0.150516,-0.065031,-0.370991,0.314849,-0.131120
37.937969,1610,-0.435588,0.957009,0.683489,-0.412814,0.367980,-0.047752
37.960216,1611,0.603010,0.091529,0.178876,-0.464324,0.444337,0.020911
37.982507,1612,1.225077,-0.865192,-0.552202,-0.422057,0.595062,0.085493
38.005024,1613,0.407225,-1.005877,-0.120924,-0.304972,0.741114,0.133464
38.026927,1614,0.493976,0.052818,0.700541,-0.193449,0.851735,0.162481
38.049220,1615,2.205964,0.062372,0.448196,-0.155801,1.065551,0.123638
38.071523,1616,2.374824,-0.574098,-0.113827,-0.153312,1.392517,0.027002
38.093742,1617,0.413121,-0.768114,-0.347446,-0.122358,1.654081,0.000804
38.116183,1618,-1.128857,-0.859375,-0.418046,-0.036483,1.712991,0.017204
38.137919,1619,-0.062522,-0.371901,-0.828011,0.044354,1.656145,-0.007892
38.160642,1620,0.460605,-0.311002,-1.216684,0.130928,1.632600,-0.041982
38.182276,1621,-1.137894,-0.145189,-0.784350,0.228724,1.560749,-0.056808
38.204702,1622,-1.881281,0.856476,0.472794,0.242166,1.372542,-0.094029
38.227078,1623,-1.548951,0.735080,0.535810,0.160343,1.112525,-0.140768
38.293229,1624,-0.207184,0.053649,-0.014403,0.114680,0.989168,-0.165837
38.316371,1625,-3.029683,0.502254,1.106107,-0.165859,0.385623,-0.262708
38.338232,1626,-0.528989,-0.312543,0.270835,-0.228665,0.245964,-0.227110
38.360367,1627,-0.069828,-0.552532,-0.116827,-0.235834,0.157436,-0.186669
38.382461,1628,0.112903,-0.454887,-0.066011,-0.198673,0.115614,-0.132057
38.405322,1629,-0.015556,-0.005367,0.294798,-0.162101,0.092345,-0.053627
38.426986,1630,-0.005027,0.279575,0.274627,-0.171812,0.065192,-0.017819
38.449017,1631,0.283835,-0.100101,-0.290930,-0.181401,0.049045,-0.011595
38.471335,1632,0.377645,-0.276947,-0.630410,-0.161029,0.048147,0.003596
38.493740,1633,0.318673,-0.326158,-0.647850,-0.105857,0.050520,0.026667
38.515990,1634,0.051135,0.585403,0.049628,-0.079672,0.027216,0.044209
38.537882,1635,0.181200,0.738736,0.165143,-0.119742,0.006732,0.042101
38.560244,1636,-0.003704,0.296489,0.051940,-0.180862,-0.013103,-0.002164
38.582521,1637,-0.038736,0.060692,0.025352,-0.227972,-0.043059,-0.047202
38.604736,1638,-0.120975,-0.072257,-0.209573,-0.250822,-0.073742,-0.074579
38.626887,1639,-0.031434,-0.127666,-0.288769,-0.250650,-0.104468,-0.106392
38.649021,1640,-0.081698,0.083112,-0.166563,-0.252248,-0.120204,-0.152498
38.671829,1641,-0.197105,0.382440,0.093615,-0.273628,-0.125531,-0.186292
38.693845,1642,-0.479838,0.142380,0.294262,-0.305779,-0.132578,-0.186918
38.716552,1643,-0.510251,0.108193,0.203980,-0.332822,-0.156669,-0.193477
38.737858,1644,-0.343149,0.006289,0.123005,-0.345849,-0.179040,-0.190281
38.760309,1645,-0.283228,-0.098663,0.280431,-0.352988,-0.192889,-0.167577
38.783166,1646,-0.096748,-0.206129,-0.012984,-0.345705,-0.199935,-0.124478
38.804767,1647,-0.102124,-0.292727,0.047582,-0.323561,-0.196908,-0.107156
38.827266,1648,-0.063320,0.052563,0.326720,-0.311518,-0.189041,-0.101644
38.849059,1649,-0.018790,0.270021,0.444657,-0.322148,-0.178632,-0.084653
38.871464,1650,-0.054027,0.012586,0.335409,-0.333334,-0.174539,-0.040356
38.893723,1651,0.070557,-0.341469,0.170792,-0.331592,-0.179045,-0.014623
38.915770,1652,0.381915,-0.474934,-0.030979,-0.303629,-0.178224,0.004042
38.937983,1653,0.337801,-0.362491,-0.184240,-0.261638,-0.157573,0.001478
38.960201,1654,0.187775,0.051248,-0.001975,-0.227162,-0.141629,-0.006899
38.983001,1655,0.220995,0.002808,-0.044180,-0.218252,-0.124013,-0.029847
39.004828,1656,0.141914,-0.208457,-0.127521,-0.204560,-0.107426,-0.063114
39.026808,1657,-0.028210,-0.280653,-0.026146,-0.177314,-0.101395,-0.093207
39.049102,1658,-0.037602,-0.066969,0.085930,-0.154915,-0.107787,-0.101666
39.071753,1659,-0.130374,-0.264865,0.026118,-0.142242,-0.116888,-0.095702
39.093954,1660,-0.233262,-0.300276,-0.000278,-0.118807,-0.133146,-0.084829
39.116319,1661,-0.162119,-0.412556,-0.041413,-0.090045,-0.155350,-0.081998
39.137984,1662,-0.096984,-0.418646,-0.150562,-0.056200,-0.174803,-0.079201
39.161307,1663,0.024947,-0.094695,-0.120916,-0.019577,-0.183326,-0.078778
39.182846,1664,-0.082089,0.085839,-0.043637,-0.000320,-0.178000,-0.065230
39.204742,1665,-0.104825,0.113449,0.003950,0.007320,-0.172264,-0.051214
39.227203,1666,-0.086998,0.186359,0.008712,0.005045,-0.167182,-0.028381
39.295746,1667,-0.013392,0.026264,0.011375,-0.000032,-0.166528,-0.021421
